,Acc_X_AD,Acc_Y_AD,Acc_Z_AD,Rot_X,Rot_Y,Rot_Z
0,0.219528255,1.456914539,-1.495097626,0.095313779,-1.124520184,-0.820843433
1,0.162888867,1.545006751,-1.308877616,-0.033794487,-1.273645609,-0.712132251
2,-0.233586855,1.509769866,-1.122657605,-0.148147523,-1.378499424,-0.629417222
3,-0.545103493,1.439296097,-1.039893155,-0.221923675,-1.457722306,-0.525432613
4,-0.856620131,1.24549323,-0.750217583,-0.310455058,-1.52296468,-0.440354297
5,-1.30973524,0.646466189,-0.667453134,-0.376853595,-1.581216799,-0.364729127
6,-1.281415546,0.329334226,-0.398468673,-0.450629747,-1.632478664,-0.298557103
7,-1.507973101,-0.163982162,-0.232939775,-0.539161129,-1.66976002,-0.241838225
8,-1.706210962,-0.8863383,-0.129484213,-0.612937281,-1.702381207,-0.201662354
9,-1.819489739,-1.362036245,0.160191359,-0.627692512,-1.730342224,-0.159123196
10,-1.677891267,-1.679168208,0.408484707,-0.494895438,-1.735002393,-0.111857464
11,-1.621251878,-1.872971075,0.574013606,-0.118637062,-1.693060868,-0.062228447
12,-1.366374629,-1.820115747,0.449866932,0.490016193,-1.574226544,-0.014962715
13,-1.083177686,-1.608694439,0.242955809,1.205644868,-1.41578078,0.027576443
14,-0.686701964,-1.221088706,-0.005337539,1.884385467,-1.248014677,0.065389028
15,-0.233586855,-1.027285839,-0.253630887,2.393440916,-1.089568913,0.096111753
16,0.389446422,-0.639680106,-0.357086449,2.68116791,-0.96141425,0.124471192
17,0.955840309,-0.128745277,-0.501924235,2.769699292,-0.865880775,0.152830631
18,1.35231603,0.188386686,-0.915746481,2.703300755,-0.80995874,0.176463496
19,1.578873585,0.540755534,-0.729526471,2.481972299,-0.788987977,0.223729227
20,2.173587167,0.593610862,-0.750217583,2.087269885,-0.798308316,0.322987263
21,2.683341665,0.646466189,-0.522615347,1.592969666,-0.826269334,0.422245299
22,2.853259831,0.646466189,-0.170866438,1.098669447,-0.835589673,0.502597042
23,2.881579526,0.558373977,0.139500247,0.681834188,-0.807628656,0.571132352
24,2.853259831,0.452663322,0.387793595,0.408862425,-0.751706621,0.651484095
25,2.598382582,0.382189553,0.367102482,0.298198197,-0.688794332,0.757831991
26,2.428464416,0.223623571,0.470558044,0.290820582,-0.635202383,0.864179886
27,2.315185638,0.206005129,0.367102482,0.312953428,-0.588600687,0.958711348
28,2.116947778,0.170768244,0.367102482,0.305575812,-0.544329077,1.029609945
29,1.833750834,0.100294474,0.305029146,0.30926462,-0.472096449,1.088692109
30,1.720472057,0.100294474,0.222264696,0.320331043,-0.383553228,1.135957841
31,1.465594807,0.100294474,0.222264696,0.364596734,-0.285689667,1.15722742
32,1.125758475,0.223623571,0.139500247,0.434684078,-0.173845598,1.169043853
33,0.927520614,0.223623571,0.056735798,0.523215461,-0.055011275,1.171407139
34,0.672643365,0.311715783,0.056735798,0.596991613,0.066153133,1.159590706
35,0.44608581,0.43504488,0.098118022,0.659701342,0.182657371,1.15013756
36,0.389446422,0.523137092,0.07742691,0.700278226,0.292171355,1.128867981
37,0.24784795,0.646466189,0.036044685,0.707655841,0.39702517,1.105235115
38,0.162888867,0.699321516,0.056735798,0.689211803,0.492558645,1.072149103
39,0.077929783,0.857887498,0.139500247,0.656012535,0.581101867,1.046152951
40,0.077929783,0.87550594,0.160191359,0.600680421,0.655664579,1.024883372
41,-0.0070293,0.893124382,0.201573584,0.497393808,0.713916698,1.013066939
42,-0.120308077,0.893124382,0.284338033,0.371974349,0.769838733,0.994160647
43,-0.063668688,0.87550594,0.470558044,0.246554891,0.811780259,0.970527781
44,-0.091988383,0.87550594,0.449866932,0.132201855,0.839741276,0.942168343
45,-0.290226243,0.752176843,0.34641137,0.017848819,0.872362463,0.927988623
46,-0.176947466,0.787413728,0.574013606,-0.103881832,0.904983649,0.920898763
47,-0.290226243,0.681703074,0.408484707,-0.207168445,0.937604836,0.913808904
48,-0.120308077,0.628847746,0.739542504,-0.299388635,0.960905684,0.91617219
49,-0.346865632,0.575992419,0.532631381,-0.373164787,1.000517125,0.887812752
50,-0.346865632,0.50551865,0.470558044,-0.439563324,1.040128566,0.850000167
51,-0.346865632,0.470281765,0.511940269,-0.480140207,1.075079838,0.809824295
52,-0.290226243,0.43504488,0.429175819,-0.520717091,1.110031109,0.769648423
53,-0.261906549,0.470281765,0.429175819,-0.561293975,1.140322211,0.731835838
54,-0.290226243,0.399807995,0.429175819,-0.601870858,1.168283228,0.694023253
55,-0.318545938,0.470281765,0.449866932,-0.631381319,1.191584076,0.663300528
56,-0.346865632,0.311715783,0.449866932,-0.657202972,1.212554839,0.642030949
57,-0.20526716,0.399807995,0.532631381,-0.686713433,1.233525602,0.590038645
58,-0.063668688,0.36457111,0.636086943,-0.697779856,1.235855687,0.535683054
59,0.077929783,0.399807995,0.636086943,-0.705157471,1.233525602,0.490780609
60,-0.120308077,0.382189553,0.511940269,-0.716223894,1.233525602,0.455331311
61,-0.148627771,0.43504488,0.553322493,-0.73835674,1.224205263,0.412792152
62,-0.233586855,0.593610862,0.69816028,-0.727290317,1.210224754,0.424608585
63,-0.233586855,0.593610862,0.739542504,-0.668269395,1.226535347,0.403339006
64,-0.233586855,0.664084631,0.677469167,-0.66089178,1.228865432,0.348983415
65,-0.261906549,0.716939958,0.801615841,-0.690402241,1.228865432,0.31117083
66,-0.431824715,0.699321516,0.905071403,-0.708846279,1.235855687,0.287537965
67,-0.346865632,0.646466189,1.029218077,-0.705157471,1.261486619,0.268631672
68,-0.431824715,0.611229304,1.111982526,-0.671958203,1.294107806,0.23554566
69,-0.290226243,0.664084631,1.277511425,-0.598182051,1.315078569,0.209549508
70,-0.176947466,0.611229304,1.298202537,-0.505961861,1.352359925,0.17410021
71,-0.261906549,0.646466189,1.380966986,-0.446940939,1.387311197,0.131561052
72,-0.176947466,0.664084631,1.401658099,-0.428496901,1.436242977,0.100838326
73,-0.091988383,0.593610862,1.401658099,-0.428496901,1.475854418,0.065389028
74,-0.035348994,0.558373977,1.318893649,-0.450629747,1.508475604,0.027576443
75,-0.0070293,0.611229304,1.546495885,-0.4764514,1.534106537,-0.010236142
76,0.049610089,0.646466189,1.50511366,-0.472762592,1.552747215,-0.036232294
77,0.219528255,0.452663322,1.298202537,-0.502273053,1.569057808,-0.024415862
78,0.191208561,0.329334226,1.360275874,-0.56867159,1.585368402,-0.05986516
79,0.134569172,0.346952668,1.401658099,-0.598182051,1.576048063,-0.126037184
80,0.049610089,0.188386686,1.153364751,-0.594493243,1.559737469,-0.180392775
81,0.162888867,0.206005129,1.132673638,-0.616626089,1.543426876,-0.206388927
82,0.106249478,0.100294474,0.987835852,-0.668269395,1.517795944,-0.213478787
83,0.021290395,-0.093508392,0.718851392,-0.760489585,1.468864163,-0.225295219
84,-0.318545938,-0.199219046,0.387793595,-0.90804189,1.359350179,-0.265471091
85,-0.686701964,-0.234455931,0.056735798,-1.022394925,1.186923906,-0.27965081
86,-0.884939825,-0.234455931,-0.295013112,-1.18470246,1.028478142,-0.248928085
87,-0.856620131,-0.357785028,-0.481233123,-1.424474954,0.914303988,-0.208752214
88,-1.026538297,-0.44587724,-0.419159786,-1.719579563,0.835081106,-0.170939629
89,-0.969898908,-0.604443222,-0.150175326,-1.974107287,0.804790004,-0.133127043
90,-1.30973524,-0.780627646,0.387793595,-2.055261055,0.80245992,-0.090587885
91,-1.30973524,-0.903956742,0.987835852,-1.900331135,0.790809496,-0.040958868
92,-1.734530656,-0.939193627,1.422349211,-1.560960836,0.734887461,0.02284987
93,-1.819489739,-0.921575185,1.691333671,-1.151503191,0.641684071,0.096111753
94,-1.76285035,-0.868719858,1.815480345,-0.778933623,0.515859493,0.176463496
95,-1.76285035,-0.780627646,2.001700356,-0.4764514,0.387704831,0.261541812
96,-1.734530656,-0.745390761,1.981009243,-0.22930129,0.282851016,0.351346702
97,-1.677891267,-0.763009203,1.918935907,-0.04486091,0.205958219,0.443514878
98,-1.536292795,-0.727772318,1.898244794,0.095313779,0.161686608,0.55222606
99,-1.706210962,-1.062522724,1.567186997,0.12482424,0.136055676,0.793281289
100,-1.677891267,-1.32679936,1.029218077,0.025226434,0.173337032,0.906719044
101,-1.734530656,-1.591075996,0.780924729,-0.173969176,0.138385761,0.968164495
102,-1.592932184,-1.908207959,0.098118022,-0.439563324,-0.00374941,1.06742253
103,-1.196456463,-2.049155499,-0.357086449,-0.749423163,-0.225107463,1.195040005
104,-0.686701964,-2.084392383,-0.708835358,-1.018706118,-0.495397297,1.341563772
105,-0.318545938,-2.084392383,-0.770908695,-1.181013652,-0.71675535,1.52117355
106,0.049610089,-2.066773941,-0.501924235,-1.129370346,-0.844910012,1.712599762
107,0.276167644,-1.872971075,0.015353573,-0.878531429,-0.919472724,1.866213389
108,0.106249478,-1.520602227,0.449866932,-0.505961861,-0.996365522,1.977287857
109,0.219528255,-1.027285839,1.029218077,-0.107570639,-1.075588404,2.038733308
110,0.502725199,-0.604443222,1.194746975,0.191222777,-1.089568913,2.093088899
111,0.757602448,-0.322548143,1.215438088,0.287131774,-0.970734589,2.107268618
112,0.785922143,-0.128745277,1.153364751,0.21704443,-0.71675535,2.031643448
113,0.842561531,-0.128745277,1.029218077,0.028915242,-0.395203652,1.911115833
114,0.44608581,-0.128745277,0.863689178,-0.192413214,-0.113263394,1.800041365
115,0.616003976,-0.44587724,0.367102482,-0.30676625,0.112754828,1.646427738
116,-0.148627771,-0.340166586,-0.232939775,-0.336276711,0.226928982,1.242305736
117,-0.375185326,-0.304929701,-0.832982032,-0.262500559,0.254889999,0.989434074
118,-0.063668688,-0.252074374,-1.433024289,-0.118637062,0.273530677,0.852363453
119,-0.063668688,-0.146363719,-2.053757659,0.003093589,0.329452712,0.731835838
120,-0.091988383,-0.00541618,-2.281359895,0.054736895,0.457607374,0.649120809
121,0.021290395,0.135531359,-2.157213221,0.025226434,0.634693816,0.606581651
122,-0.035348994,0.36457111,-1.97099321,-0.048549718,0.816440428,0.604218364
123,-0.035348994,0.399807995,-1.743390974,-0.181346791,0.984206532,0.61367151
124,0.049610089,0.593610862,-1.557170963,-0.32152148,1.110031109,0.62076137
125,0.191208561,0.628847746,-1.35025984,-0.446940939,1.193914161,0.62785123
126,0.106249478,0.699321516,-1.101966492,-0.542849937,1.259156534,0.625487943
127,0.191208561,0.646466189,-0.770908695,-0.616626089,1.298767975,0.630214516
128,0.276167644,0.664084631,-0.667453134,-0.657202972,1.333719247,0.62785123
129,0.332807033,0.43504488,-0.54330646,-0.657202972,1.347699755,0.62785123
130,0.361126727,0.223623571,-0.274321999,-0.624003704,1.368670518,0.634941089
131,0.389446422,-0.023034622,-0.108793101,-0.546538744,1.377990857,0.625487943
132,0.44608581,-0.44587724,0.07742691,-0.380542402,1.384981112,0.604218364
133,0.616003976,-0.780627646,0.160191359,-0.140769908,1.371000603,0.580585498
134,0.927520614,-0.974430512,0.325720258,0.154334701,1.338379416,0.509686902
135,0.785922143,-0.95681207,0.201573584,0.537970691,1.291777721,0.405702293
136,0.70096306,-0.903956742,0.015353573,0.892096221,1.228865432,0.292264538
137,0.502725199,-0.798246088,-0.170866438,1.18720083,1.170613313,0.185916642
138,0.361126727,-0.604443222,-0.295013112,1.404840478,1.128671787,0.093748467
139,0.021290395,-0.428258798,-0.46054201,1.55608159,1.070419668,-0.000782996
140,-0.318545938,-0.111126834,-0.481233123,1.596658474,1.007507379,-0.083498026
141,-0.573423187,0.082676032,-0.584688684,1.545015167,0.977216277,-0.170939629
142,-0.799980742,0.153149802,-0.832982032,1.37164121,0.977216277,-0.260744518
143,-1.026538297,0.523137092,-0.439850898,1.080225409,0.986536616,-0.374182273
144,-1.338054935,0.593610862,-0.46054201,0.785120801,0.977216277,-0.508889607
145,-1.621251878,0.734558401,-0.274321999,0.467883347,0.946925175,-0.634143795
146,-1.706210962,0.716939958,-0.232939775,0.180156354,0.904983649,-0.745218263
147,-1.876129128,0.646466189,-0.274321999,-0.059616141,0.856051869,-0.837386439
148,-1.847809433,0.593610862,-0.315704224,-0.258811751,0.79779975,-0.915374896
149,-1.847809433,0.575992419,-0.295013112,-0.354720749,0.741877716,-0.979183633
150,-1.76285035,0.540755534,-0.398468673,-0.362098364,0.702266275,-1.024086078
151,-1.56461249,0.417426438,-0.501924235,-0.325210288,0.676635342,-1.071351809
152,-1.479653407,0.399807995,-0.584688684,-0.288322212,0.657994664,-1.106801107
153,-1.253095852,0.346952668,-0.46054201,-0.262500559,0.632363731,-1.130433973
154,-1.139817074,0.294097341,-0.522615347,-0.207168445,0.59275229,-1.163519985
155,-0.998218602,0.346952668,-0.46054201,-0.126014677,0.536830256,-1.180062991
156,-0.601742881,0.417426438,-0.419159786,-0.041172103,0.473917967,-1.182426277
157,-0.601742881,0.523137092,-0.336395336,0.021537627,0.39702517,-1.180062991
158,-0.431824715,0.523137092,-0.377777561,0.099002586,0.306151864,-1.163519985
159,-0.318545938,0.593610862,-0.336395336,0.161712316,0.205958219,-1.144613692
160,-0.20526716,0.681703074,-0.377777561,0.198600392,0.09411415,-1.128070686
161,-0.20526716,0.716939958,-0.253630887,0.194911584,-0.020060004,-1.11152768
162,-0.148627771,0.734558401,-0.232939775,0.165401123,-0.143554496,-1.085531528
163,-0.120308077,0.769795286,-0.357086449,0.099002586,-0.26238882,-1.066625236
164,-0.20526716,0.681703074,-0.295013112,0.006782396,-0.376562973,-1.038265797
165,-0.148627771,0.681703074,-0.150175326,-0.081748986,-0.479086703,-1.009906358
166,-0.290226243,0.611229304,-0.232939775,-0.166591561,-0.569960009,-0.979183633
167,-0.120308077,0.611229304,-0.026028652,-0.240367713,-0.653843061,-0.948460908
168,-0.176947466,0.523137092,-0.046719764,-0.29201102,-0.726075689,-0.913011609
169,-0.035348994,0.452663322,0.036044685,-0.336276711,-0.791318062,-0.872835738
170,-0.063668688,0.36457111,0.160191359,-0.376853595,-0.821609164,-0.856292732
171,-0.261906549,0.346952668,0.139500247,-0.417430478,-0.842579927,-0.846839585
172,-0.176947466,0.223623571,0.325720258,-0.454318554,-0.865880775,-0.804300427
173,-0.091988383,0.206005129,0.284338033,-0.446940939,-0.91248247,-0.787757421
174,-0.0070293,0.170768244,0.34641137,-0.406364055,-0.970734589,-0.780667562
175,0.106249478,0.135531359,0.325720258,-0.365787172,-1.012676115,-0.771214415
176,0.24784795,0.117912917,0.470558044,-0.32152148,-1.042967217,-0.759397983
177,0.219528255,0.153149802,0.429175819,-0.269878174,-1.077918489,-0.745218263
178,0.474405505,0.188386686,0.367102482,-0.221923675,-1.105879506,-0.726311971
179,0.332807033,0.188386686,0.470558044,-0.196102022,-1.129180354,-0.697952532
180,0.24784795,0.276478898,0.387793595,-0.177657984,-1.140830777,-0.66486652
181,0.332807033,0.170768244,0.553322493,-0.173969176,-1.154811286,-0.615237502
182,0.276167644,0.311715783,0.594704718,-0.1370811,-1.171121879,-0.556155338
183,0.332807033,0.241242014,0.636086943,-0.078060179,-1.189762558,-0.494709888
184,0.474405505,0.294097341,0.61539583,-0.059616141,-1.21539349,-0.421448004
185,0.417766116,0.382189553,0.656778055,-0.041172103,-1.238694338,-0.348186121
186,0.332807033,0.399807995,0.574013606,-0.059616141,-1.257335016,-0.267834378
187,0.559364588,0.470281765,0.801615841,-0.129703485,-1.275975694,-0.185119348
188,0.304487338,0.575992419,0.739542504,-0.19979083,-1.310926966,-0.109494178
189,0.389446422,0.523137092,0.760233617,-0.273566982,-1.357528661,-0.033869008
190,0.361126727,0.593610862,0.822306954,-0.336276711,-1.41578078,0.044119449
191,0.219528255,0.593610862,0.863689178,-0.38423121,-1.478693069,0.122107905
192,0.219528255,0.575992419,0.905071403,-0.410052863,-1.548595612,0.204822935
193,0.077929783,0.523137092,0.96714474,-0.417430478,-1.613837986,0.292264538
194,-0.176947466,0.470281765,1.008526964,-0.402675248,-1.681410444,0.363163135
195,-0.346865632,0.346952668,1.091291414,-0.343654326,-1.741992648,0.436425018
196,-0.375185326,0.188386686,1.360275874,-0.255122944,-1.800244767,0.495507182
197,-0.715021659,0.153149802,1.443040323,-0.118637062,-1.860826971,0.526229907
198,-0.828300436,0.135531359,1.484422548,0.043670472,-1.942379938,0.599491791
199,-0.913259519,0.029820705,1.732715896,0.23179966,-2.01694265,0.677480248
200,-1.083177686,0.047439147,1.732715896,0.412551233,-2.082185024,0.729472552
201,-1.168136769,0.047439147,1.794789233,0.593302805,-2.131116804,0.746015558
202,-1.139817074,0.100294474,1.85686257,0.766676763,-2.147427398,0.767285137
203,-0.715021659,0.06505759,1.484422548,0.917917875,-2.133446889,0.800371149
204,-0.516783798,0.047439147,1.091291414,0.980627604,-2.054224007,0.800371149
205,0.106249478,0.012202262,0.594704718,0.954805951,-1.902768497,0.776738283
206,0.587684282,0.06505759,0.242955809,0.803564839,-1.72335197,0.691659967
207,1.069119086,0.047439147,-0.108793101,0.545348307,-1.534615103,0.549862773
208,1.267356947,0.206005129,-0.067410876,0.239177275,-1.352868491,0.32535055
209,1.607193279,0.117912917,-0.088101989,-0.052238525,-1.208403236,0.226092514
210,1.890390223,0.047439147,0.201573584,-0.258811751,-1.054617641,0.119744619
211,2.031988695,0.047439147,0.470558044,-0.358409557,-0.91714264,0.011033437
212,2.371825027,-0.00541618,0.677469167,-0.380542402,-0.798308316,-0.081134739
213,2.881579526,-0.07588995,0.96714474,-0.354720749,-0.672483739,-0.178029488
214,2.938218914,-0.023034622,1.215438088,-0.310455058,-0.528018483,-0.277287524
215,3.164776469,-0.128745277,1.525804772,-0.251434136,-0.378893058,-0.376545559
216,3.221415858,-0.163982162,1.753407008,-0.144458715,-0.246078226,-0.497073174
217,3.108137081,-0.163982162,1.815480345,-0.007972834,-0.136564242,-0.674319666
218,2.853259831,-0.269692816,1.85686257,0.146957085,-0.099282886,-0.768851129
219,2.711661359,-0.569206337,1.753407008,0.276065351,-0.096952801,-0.830296579
220,2.428464416,-0.81586453,1.422349211,0.338775081,-0.089962547,-0.969730487
221,2.201906861,-0.974430512,0.987835852,0.327708658,-0.085302377,-1.130433973
222,1.862070529,-1.344417802,0.594704718,0.294509389,-0.031710428,-1.227328722
223,1.408955419,-1.573457554,0.222264696,0.205978007,0.119745082,-1.310043752
224,0.984160003,-1.76726042,-0.026028652,0.058425703,0.357413729,-1.411665074
225,0.616003976,-1.76726042,-0.19155755,-0.118637062,0.606732799,-1.546372408
226,0.587684282,-1.802497305,-0.295013112,-0.310455058,0.793139581,-1.709439181
227,0.616003976,-1.732023535,-0.46054201,-0.505961861,0.902653565,-1.870142667
228,0.955840309,-1.626312881,-0.605379797,-0.705157471,0.963235769,-1.995396855
229,1.154078169,-1.520602227,-0.584688684,-0.874842621,1.040128566,-2.123014329
230,1.295676641,-1.362036245,-0.522615347,-1.007639695,1.161292974,-2.25299509
231,1.097438781,-1.168233378,-0.253630887,-1.059283001,1.30109806,-2.349889839
232,1.069119086,-1.221088706,0.263646921,-0.985506849,1.415272214,-2.41842515
233,0.644323671,-0.939193627,0.69816028,-0.841643353,1.447893401,-2.541316051
234,0.332807033,-0.868719858,0.946453627,-0.668269395,1.315078569,-2.522409758
235,-0.035348994,-0.745390761,0.946453627,-0.480140207,1.103040855,-2.465690881
236,-0.318545938,-0.569206337,0.842998066,-0.30676625,0.832751022,-2.345163266
237,-0.290226243,-0.551587894,0.325720258,-0.1370811,0.504209069,-2.193912926
238,-0.261906549,-0.481114125,-0.46054201,0.006782396,0.182657371,-2.068658738
239,-0.261906549,-0.234455931,-1.246804279,0.080558548,-0.085302377,-1.95758427
240,-0.488464104,0.047439147,-1.950302097,0.128513047,-0.283359583,-1.846509801
241,-0.630062576,0.223623571,-2.426197681,0.121135432,-0.423164669,-1.709439181
242,-0.743341353,0.523137092,-2.653799916,0.039981665,-0.56529984,-1.593638139
243,-0.884939825,0.664084631,-2.488271018,-0.100193024,-0.756366791,-1.51092311
244,-0.998218602,0.787413728,-2.343433232,-0.273566982,-1.005685861,-1.447114372
245,-1.196456463,0.94597971,-2.074448771,-0.413741671,-1.252674846,-1.385668922
246,-1.394694324,0.910742825,-1.826155424,-0.487517823,-1.467042645,-1.319496898
247,-1.592932184,0.857887498,-1.6192443,-0.520717091,-1.639468918,-1.234418582
248,-1.706210962,0.699321516,-1.412333177,-0.520717091,-1.781604089,-1.149340265
249,-1.819489739,0.382189553,-1.08127538,-0.517028284,-1.886457903,-1.073715095
250,-1.989407905,0.082676032,-0.936437594,-0.542849937,-1.975001125,-1.007543072
251,-2.131006377,-0.357785028,-0.832982032,-0.564982782,-2.056554092,-0.931917902
252,-2.21596546,-0.868719858,-0.54330646,-0.56867159,-2.135776974,-0.842113012
253,-2.272604849,-1.344417802,-0.377777561,-0.49120663,-2.198689262,-0.731038544
254,-1.876129128,-1.626312881,-0.295013112,-0.258811751,-2.219660025,-0.608147643
255,-1.734530656,-1.784878863,-0.129484213,0.194911584,-2.175388415,-0.480530168
256,-1.338054935,-1.855352632,-0.067410876,0.836764107,-2.056554092,-0.35527598
257,-0.998218602,-1.696786651,-0.129484213,1.637235358,-1.884127819,-0.230021793
258,-0.573423187,-1.39727313,-0.357086449,2.430328993,-1.693060868,-0.109494178
259,-0.148627771,-1.080141166,-0.501924235,3.105380784,-1.497333747,-0.003146283
260,0.44608581,-0.639680106,-0.646762021,3.555415312,-1.308596881,0.08429532
261,0.984160003,-0.146363719,-0.853673144,3.773054961,-1.159471456,0.164647063
262,1.465594807,0.170768244,-1.122657605,3.695590001,-1.061607895,0.244998807
263,2.060308389,0.487900207,-1.267495391,3.323020433,-1.021996454,0.339530269
264,2.711661359,0.681703074,-1.226113166,2.706989563,-1.031316793,0.450604737
265,2.90989922,0.787413728,-1.205422054,1.928651158,-1.06393798,0.5451362
266,2.966538609,0.94597971,-1.08127538,1.128179908,-1.101219336,0.639667662
267,3.023177998,0.94597971,-0.791599807,0.445750501,-1.11752993,0.741288985
268,2.966538609,0.840269055,-0.522615347,0.006782396,-1.119860015,0.866543173
269,2.994858303,0.646466189,-0.419159786,-0.232990098,-1.101219336,1.008340366
270,2.994858303,0.399807995,-0.481233123,-0.336276711,-1.059277811,1.112324975
271,2.711661359,0.399807995,-0.501924235,-0.373164787,-1.005685861,1.185586858
272,2.371825027,0.206005129,-0.46054201,-0.339965518,-0.919472724,1.230489303
273,2.003669,0.258860456,-0.605379797,-0.266189366,-0.802968486,1.263575315
274,1.692152362,0.294097341,-0.46054201,-0.148147523,-0.681804078,1.275391748
275,1.465594807,0.258860456,-0.419159786,-0.015350449,-0.56529984,1.270665175
276,1.154078169,0.294097341,-0.398468673,0.13957947,-0.453455771,1.251758882
277,0.955840309,0.311715783,-0.315704224,0.298198197,-0.329961278,1.213946297
278,0.70096306,0.43504488,-0.315704224,0.434684078,-0.192486277,1.166680566
279,0.559364588,0.470281765,-0.295013112,0.619124459,-0.036370597,1.119414835
280,0.361126727,0.575992419,-0.232939775,0.792498416,0.129065421,1.08160225
281,0.24784795,0.664084631,-0.295013112,0.943739528,0.29450144,1.048516238
282,0.106249478,0.787413728,-0.212248663,1.024893295,0.455277289,1.013066939
283,0.021290395,0.840269055,-0.274321999,1.043337333,0.602072629,0.984707501
284,-0.120308077,0.998835037,-0.315704224,0.995382834,0.706926444,0.961074635
285,0.077929783,1.069308806,-0.150175326,0.899473837,0.814110343,0.937441769
286,-0.035348994,1.016453479,-0.108793101,0.729788687,0.884012886,0.911445617
287,-0.035348994,1.069308806,-0.108793101,0.523215461,0.946925175,0.918535477
288,0.021290395,1.034071922,-0.026028652,0.327708658,0.993526871,0.93035191
289,0.077929783,0.981216594,0.015353573,0.132201855,1.009837464,0.946894916
290,0.077929783,0.963598152,0.036044685,-0.055927333,1.037798481,0.935078483
291,0.106249478,0.87550594,0.056735798,-0.232990098,1.063429414,0.93035191
292,0.134569172,0.752176843,0.160191359,-0.406364055,1.086730261,0.937441769
293,0.162888867,0.734558401,0.015353573,-0.561293975,1.112361194,0.932715196
294,0.106249478,0.664084631,0.07742691,-0.701468664,1.140322211,0.958711348
295,0.077929783,0.43504488,0.098118022,-0.804755277,1.184593822,0.963437922
296,-0.091988383,0.399807995,0.015353573,-0.882220236,1.226535347,0.920898763
297,0.106249478,0.346952668,0.222264696,-0.919108312,1.256826449,0.897265898
298,0.049610089,0.36457111,0.242955809,-0.915419505,1.284787467,0.875996319
299,-0.0070293,0.382189553,0.222264696,-0.92279712,1.338379416,0.850000167
300,-0.120308077,0.43504488,0.284338033,-0.933863543,1.387311197,0.835820447
301,-0.091988383,0.382189553,0.34641137,-0.944929966,1.429252722,0.819277441
302,0.021290395,0.346952668,0.367102482,-0.970751619,1.466534079,0.750742131
303,-0.0070293,0.346952668,0.449866932,-0.981818042,1.492165011,0.691659967
304,0.049610089,0.311715783,0.594704718,-0.996573272,1.538766706,0.630214516
305,0.021290395,0.346952668,0.656778055,-1.011328503,1.59934891,0.564042492
306,-0.035348994,0.417426438,0.636086943,-1.040838963,1.666921369,0.490780609
307,-0.20526716,0.50551865,0.69816028,-1.048216579,1.739153997,0.417518726
308,-0.261906549,0.417426438,0.863689178,-1.051905386,1.80905654,0.356073275
309,-0.318545938,0.36457111,0.863689178,-1.048216579,1.864978574,0.285174678
310,-0.261906549,0.294097341,0.905071403,-1.044527771,1.920900609,0.216639368
311,-0.460144409,0.206005129,1.029218077,-1.007639695,1.981482813,0.145740771
312,-0.460144409,0.153149802,0.987835852,-0.915419505,2.05371544,0.086658607
313,-0.346865632,0.06505759,1.070600301,-0.760489585,2.118957814,0.039392876
314,-0.318545938,0.047439147,0.946453627,-0.56867159,2.172549764,-0.003146283
315,-0.120308077,-0.07588995,0.96714474,-0.358409557,2.223811628,-0.026779148
316,-0.148627771,-0.040653065,0.801615841,-0.162902753,2.270413324,-0.050412014
317,0.219528255,-0.163982162,0.905071403,0.03260405,2.310024765,0.001580291
318,0.389446422,-0.128745277,0.925762515,0.198600392,2.391577732,-0.071681593
319,0.389446422,-0.146363719,1.029218077,0.346152696,2.447499766,-0.137853617
320,0.587684282,-0.181600604,1.194746975,0.47894977,2.496431546,-0.168576342
321,0.672643365,-0.040653065,1.360275874,0.619124459,2.536042987,-0.185119348
322,0.672643365,-0.040653065,1.277511425,0.810942454,2.524392564,-0.14258019
323,0.587684282,-0.00541618,1.298202537,0.965872374,2.503421801,-0.163849769
324,0.276167644,0.06505759,1.256820312,1.047026141,2.433519258,-0.232385079
325,-0.063668688,0.100294474,1.318893649,1.054403756,2.303034511,-0.265471091
326,-0.601742881,0.117912917,1.153364751,1.01751568,2.130608238,-0.232385079
327,-0.941579214,-0.07588995,1.070600301,0.943739528,1.925560778,-0.189845921
328,-1.649571573,-0.093508392,0.677469167,0.825697685,1.676241708,-0.185119348
329,-2.414203321,-0.181600604,0.325720258,0.619124459,1.380320942,-0.144943476
330,-2.838998736,-0.163982162,0.180882472,0.338775081,1.10537094,-0.06695502
331,-3.093875985,-0.163982162,0.242955809,0.039981665,0.888673056,0.027576443
332,-3.150515374,-0.111126834,0.387793595,-0.218234868,0.755858224,0.117381332
333,-3.12219568,-0.111126834,0.801615841,-0.376853595,0.716246783,0.207186222
334,-3.12219568,-0.111126834,1.194746975,-0.395297633,0.746537885,0.285174678
335,-3.065556291,-0.199219046,1.629260334,-0.236678906,0.776828987,0.365526421
336,-3.037236597,-0.111126834,2.022391468,0.065803318,0.765178563,0.438788305
337,-2.782359347,-0.093508392,2.063773693,0.434684078,0.692945935,0.500233755
338,-2.499162404,0.012202262,2.12584703,0.77036557,0.585762036,0.542772913
339,-2.21596546,0.029820705,2.063773693,1.010138065,0.483238306,0.585312072
340,-2.102686683,-0.040653065,1.794789233,1.098669447,0.390034916,0.646757522
341,-1.76285035,-0.481114125,1.525804772,1.013826872,0.341103135,0.77910157
342,-1.904448822,-0.8863383,1.153364751,0.766676763,0.341103135,0.762558564
343,-2.300924543,-1.273944033,0.69816028,0.412551233,0.324792542,0.800371149
344,-2.21596546,-1.679168208,-0.026028652,-0.022728064,0.282851016,0.892539325
345,-2.046047294,-2.049155499,-0.729526471,-0.557605167,0.171006947,1.010703653
346,-1.677891267,-2.348669019,-1.184730942,-1.144125576,-0.055011275,1.147774273
347,-0.969898908,-2.612945655,-1.433024289,-1.671625064,-0.350932041,1.325020766
348,-0.375185326,-2.806748522,-1.433024289,-1.922463981,-0.625882044,1.544806416
349,0.304487338,-2.665800983,-0.853673144,-1.782289292,-0.788987977,1.778771786
350,0.276167644,-2.260576807,-0.212248663,-1.254789804,-0.854230351,1.979651144
351,0.162888867,-1.749641978,0.34641137,-0.535472322,-0.938113403,2.111995191
352,0.219528255,-1.203470263,0.69816028,0.128513047,-1.056947726,2.204163367
353,0.361126727,-0.798246088,0.88438029,0.563792345,-1.133840523,2.27742525
354,0.587684282,-0.481114125,0.801615841,0.74085511,-1.101219336,2.293968256
355,0.531044893,-0.269692816,0.61539583,0.729788687,-0.987045183,2.239612665
356,0.361126727,-0.128745277,0.160191359,0.630190882,-0.847240097,2.12617491
357,-0.091988383,-0.00541618,-0.439850898,0.486327385,-0.733065943,1.991467576
358,-0.148627771,-0.00541618,-0.957128706,0.331397466,-0.646852807,1.892209541
359,-0.346865632,0.012202262,-1.722699862,0.172778739,-0.574620179,1.781135072
360,-0.460144409,0.153149802,-2.177904333,0.021537627,-0.50704772,1.67242389
361,-0.318545938,0.241242014,-2.488271018,-0.1370811,-0.402193906,1.599162007
362,-0.375185326,0.452663322,-2.591726579,-0.277255789,-0.229767633,1.577892428
363,0.276167644,0.540755534,-2.50896213,-0.354720749,-0.001419326,1.570802568
364,0.361126727,0.752176843,-2.302051007,-0.406364055,0.247899745,1.485724252
365,0.616003976,1.016453479,-2.136522108,-0.439563324,0.508869239,1.417188942
366,0.672643365,1.175019461,-1.867537648,-0.4764514,0.718576868,1.379376357
367,0.89920092,1.157401018,-1.557170963,-0.557605167,0.839741276,1.358106778
368,1.097438781,1.034071922,-1.205422054,-0.66089178,0.879352717,1.322657479
369,1.182397864,0.80503217,-0.936437594,-0.767867201,0.867702293,1.273028461
370,1.323996336,0.276478898,-0.688144246,-0.867465006,0.856051869,1.209219724
371,1.465594807,-0.252074374,-0.46054201,-0.930174735,0.856051869,1.114688262
372,1.380635724,-0.727772318,-0.212248663,-0.893286659,0.870032378,0.99888722
373,1.239037252,-1.238707148,-0.026028652,-0.730979125,0.863042124,0.861816599
374,1.097438781,-1.626312881,0.07742691,-0.380542402,0.818770513,0.69638654
375,0.927520614,-1.76726042,0.015353573,0.161712316,0.755858224,0.535683054
376,0.757602448,-1.820115747,-0.150175326,0.814631262,0.690615851,0.377342854
377,0.474405505,-1.608694439,-0.315704224,1.471239015,0.641684071,0.226092514
378,0.134569172,-1.432510014,-0.419159786,2.068825847,0.59275229,0.107928186
379,-0.063668688,-1.203470263,-0.439850898,2.555748451,0.54382051,0.001580291
380,-0.403505021,-0.868719858,-0.46054201,2.891429943,0.483238306,-0.097677745
381,-0.884939825,-0.533969452,-0.522615347,3.101691977,0.420326018,-0.182756061
382,-1.196456463,-0.287311258,-0.46054201,3.068492708,0.373724322,-0.265471091
383,-1.592932184,-0.128745277,-0.419159786,2.869297097,0.306151864,-0.378908846
384,-1.76285035,0.012202262,-0.170866438,2.474594684,0.219938727,-0.468713735
385,-1.961088211,0.188386686,-0.129484213,2.109402731,0.126735337,-0.579788204
386,-2.0177276,0.36457111,0.201573584,1.770032431,0.056832794,-0.662503234
387,-2.046047294,0.452663322,0.036044685,1.519193514,0.010231098,-0.738128404
388,-2.074366988,0.470281765,0.098118022,1.275732212,-0.031710428,-0.801937141
389,-1.932768516,0.470281765,0.160191359,1.076536602,-0.059671445,-0.849202872
390,-1.847809433,0.36457111,0.160191359,0.962183566,-0.082972293,-0.887015457
391,-1.734530656,0.346952668,-0.067410876,0.910540259,-0.113263394,-0.913011609
392,-1.56461249,0.399807995,0.056735798,0.914229067,-0.148214666,-0.943734334
393,-1.507973101,0.575992419,-0.150175326,0.958494758,-0.185496022,-0.976820346
394,-1.366374629,0.540755534,-0.19155755,0.991694027,-0.234427802,-1.000453212
395,-1.196456463,0.664084631,-0.170866438,1.00276045,-0.290349837,-1.021722791
396,-1.11149738,0.752176843,-0.170866438,0.980627604,-0.346271871,-1.040629084
397,-0.913259519,0.857887498,-0.046719764,0.943739528,-0.40918416,-1.05008223
398,-0.715021659,0.87550594,-0.026028652,0.881029799,-0.476756618,-1.054808803
399,-0.488464104,0.910742825,0.015353573,0.818320069,-0.544329077,-1.052445516
400,-0.516783798,0.981216594,-0.046719764,0.74085511,-0.597921026,-1.045355657
401,-0.431824715,1.051690364,-0.067410876,0.626502074,-0.660833315,-1.03590251
402,-0.318545938,1.104545691,-0.046719764,0.490016193,-0.721415519,-1.026449364
403,-0.290226243,1.104545691,-0.005337539,0.342463888,-0.784327808,-1.009906358
404,-0.233586855,1.034071922,0.118809135,0.194911584,-0.833259588,-0.998089925
405,-0.20526716,1.069308806,0.07742691,0.073180933,-0.877531199,-0.988636779
406,-0.0070293,0.998835037,-0.046719764,-0.052238525,-0.907822301,-0.972093773
407,0.162888867,0.928361267,0.07742691,-0.196102022,-0.940443487,-0.950824194
408,0.106249478,0.893124382,0.098118022,-0.332587903,-0.954423996,-0.939007761
409,0.134569172,0.80503217,0.160191359,-0.4764514,-0.945103657,-0.931917902
410,0.134569172,0.769795286,0.305029146,-0.616626089,-0.933453233,-0.917738182
411,0.162888867,0.681703074,0.367102482,-0.712535087,-0.945103657,-0.908285036
412,0.162888867,0.575992419,0.387793595,-0.804755277,-0.96607442,-0.89883189
413,0.049610089,0.540755534,0.387793595,-0.867465006,-0.996365522,-0.89174203
414,0.219528255,0.50551865,0.574013606,-0.889597852,-1.045297302,-0.882288884
415,0.44608581,0.382189553,0.677469167,-0.893286659,-1.103549421,-0.865745878
416,0.191208561,0.382189553,0.553322493,-0.90804189,-1.157141371,-0.849202872
417,0.134569172,0.399807995,0.532631381,-0.944929966,-1.194422727,-0.813753574
418,0.077929783,0.346952668,0.594704718,-0.978129234,-1.224713829,-0.775940989
419,0.106249478,0.346952668,0.594704718,-0.978129234,-1.26432527,-0.726311971
420,0.021290395,0.382189553,0.511940269,-0.952307581,-1.301606627,-0.686136099
421,0.021290395,0.311715783,0.449866932,-0.92279712,-1.334227813,-0.634143795
422,-0.120308077,0.346952668,0.491249156,-0.904353082,-1.357528661,-0.584514777
423,-0.318545938,0.399807995,0.449866932,-0.889597852,-1.383159593,-0.527795899
424,-0.318545938,0.523137092,0.491249156,-0.871153814,-1.408790526,-0.468713735
425,-0.403505021,0.50551865,0.61539583,-0.84533216,-1.434421458,-0.402541712
426,-0.290226243,0.664084631,0.636086943,-0.793688854,-1.460052391,-0.338732974
427,-0.403505021,0.575992419,0.61539583,-0.756800778,-1.490343493,-0.274924237
428,-0.403505021,0.593610862,0.718851392,-0.712535087,-1.52296468,-0.208752214
429,-0.346865632,0.593610862,0.69816028,-0.671958203,-1.557915951,-0.14258019
430,-0.290226243,0.558373977,0.863689178,-0.620314896,-1.597527392,-0.083498026
431,-0.403505021,0.628847746,0.905071403,-0.55391636,-1.634808748,-0.022052575
432,-0.290226243,0.540755534,0.905071403,-0.498584245,-1.672090105,0.039392876
433,-0.488464104,0.558373977,0.96714474,-0.402675248,-1.702381207,0.093748467
434,-0.488464104,0.540755534,1.132673638,-0.277255789,-1.739662563,0.15992049
435,-0.346865632,0.346952668,0.987835852,-0.111259447,-1.774613835,0.221365941
436,-0.375185326,0.258860456,1.194746975,0.069492126,-1.802574852,0.280448105
437,-0.318545938,0.153149802,1.194746975,0.250243698,-1.832865954,0.344256842
438,-0.346865632,0.153149802,1.153364751,0.41624004,-1.860826971,0.396249147
439,-0.375185326,0.100294474,1.194746975,0.578547575,-1.886457903,0.429335158
440,-0.403505021,0.06505759,1.318893649,0.718722264,-1.912088836,0.455331311
441,-0.233586855,0.082676032,1.174055863,0.836764107,-1.933059599,0.486054036
442,-0.233586855,0.06505759,1.256820312,0.936361913,-1.944710023,0.493143896
443,-0.148627771,0.117912917,1.153364751,1.021204488,-1.942379938,0.500233755
444,-0.035348994,0.117912917,1.256820312,1.083914217,-1.935389684,0.504960328
445,0.077929783,0.153149802,1.153364751,1.091291832,-1.905098582,0.504960328
446,0.304487338,0.100294474,0.780924729,1.039648526,-1.844516378,0.504960328
447,0.672643365,0.135531359,0.34641137,0.928984297,-1.707041376,0.464784457
448,1.210717558,0.117912917,0.07742691,0.692900611,-1.541605358,0.419882012
449,1.522234196,0.223623571,-0.212248663,0.360907926,-1.387819763,0.351346702
450,1.550553891,0.241242014,-0.295013112,-0.037483295,-1.26432527,0.282811392
451,1.607193279,0.135531359,-0.253630887,-0.450629747,-1.175782049,0.216639368
452,1.493914502,0.047439147,0.07742691,-0.819510507,-1.101219336,0.164647063
453,1.493914502,-0.111126834,0.387793595,-1.074038232,-1.026656624,0.119744619
454,1.437275113,-0.304929701,0.739542504,-1.162569614,-0.942773572,0.079568747
455,1.635512974,-0.340166586,1.132673638,-1.118303923,-0.844910012,0.044119449
456,1.578873585,-0.393021913,1.339584762,-0.989195657,-0.709765095,-0.000782996
457,1.550553891,-0.37540347,1.546495885,-0.83057693,-0.553649416,-0.050412014
458,1.380635724,-0.357785028,1.77409812,-0.664580588,-0.399863821,-0.104767605
459,1.437275113,-0.393021913,1.712024783,-0.524405899,-0.281029498,-0.182756061
460,1.239037252,-0.304929701,1.608569222,-0.432185709,-0.2041367,-0.305646963
461,1.239037252,-0.44587724,1.463731435,-0.406364055,-0.129573988,-0.471077022
462,0.927520614,-0.340166586,1.256820312,-0.49120663,-0.11093331,-0.705042392
463,0.927520614,-0.533969452,0.987835852,-0.631381319,-0.136564242,-0.726311971
464,0.927520614,-0.745390761,0.842998066,-0.797377661,-0.115593479,-0.749944836
465,0.842561531,-0.974430512,0.801615841,-0.963374004,-0.055011275,-0.827933293
466,0.559364588,-1.221088706,0.739542504,-1.096171077,0.024211607,-0.946097621
467,0.502725199,-1.450128457,0.718851392,-1.162569614,0.131395506,-1.109164394
468,0.417766116,-1.573457554,0.88438029,-1.166258422,0.24090949,-1.26986788
469,0.219528255,-1.555839111,0.987835852,-1.147814384,0.355083644,-1.35258291
470,0.616003976,-1.608694439,0.905071403,-1.129370346,0.457607374,-1.456567519
471,0.672643365,-1.520602227,0.925762515,-1.144125576,0.532170086,-1.598364712
472,0.616003976,-1.450128457,0.88438029,-1.18470246,0.578771782,-1.742525193
473,0.814241837,-1.414891572,0.822306954,-1.243723382,0.618383223,-1.907955252
474,0.559364588,-1.25632559,0.760233617,-1.29167788,0.634693816,-2.049752446
475,0.70096306,-1.150614936,0.656778055,-1.295366688,0.641684071,-2.059205592
476,0.785922143,-1.080141166,0.61539583,-1.265856227,0.683625596,-2.049752446
477,0.70096306,-1.080141166,0.677469167,-1.236345766,0.711586614,-2.054479019
478,0.474405505,-1.027285839,0.511940269,-1.228968151,0.688285766,-2.082838458
479,0.304487338,-0.974430512,0.429175819,-1.225279344,0.571781527,-2.11592447
480,0.106249478,-0.851101415,0.180882472,-1.173636037,0.417995933,-2.035572726
481,0.44608581,-1.009667397,-0.108793101,-1.01501731,0.292171355,-1.87486924
482,0.587684282,-0.95681207,-0.357086449,-0.786311239,0.182657371,-1.744888479
483,0.616003976,-0.903956742,-0.750217583,-0.528094706,0.073143387,-1.666900023
484,0.616003976,-0.604443222,-1.184730942,-0.295699827,-0.050351106,-1.636177297
485,0.502725199,-0.269692816,-1.598553188,-0.096504217,-0.2041367,-1.584184993
486,0.616003976,0.100294474,-1.805464311,0.028915242,-0.369572719,-1.50383325
487,0.587684282,0.452663322,-2.012375434,0.117446624,-0.541998992,-1.442387799
488,0.502725199,0.769795286,-2.115830996,0.143268278,-0.693454502,-1.376215775
489,0.531044893,1.086927249,-2.302051007,0.091624971,-0.823939249,-1.307680465
490,0.729282754,1.175019461,-2.198595445,-0.048549718,-0.919472724,-1.279321026
491,0.474405505,1.263111673,-2.177904333,-0.255122944,-0.980054928,-1.241508441
492,0.389446422,1.24549323,-1.846846536,-0.446940939,-0.989375268,-1.20133257
493,0.276167644,1.069308806,-1.557170963,-0.579738013,-0.968404505,-1.163519985
494,0.077929783,0.857887498,-1.35025984,-0.664580588,-0.949763826,-1.123344113
495,0.021290395,0.523137092,-1.039893155,-0.705157471,-0.933453233,-1.097347961
496,-0.120308077,0.135531359,-0.791599807,-0.719912702,-0.931123148,-1.080804955
497,-0.176947466,-0.322548143,-0.522615347,-0.705157471,-0.928793064,-1.064261949
498,-0.318545938,-0.710153876,-0.357086449,-0.631381319,-0.926462979,-1.045355657
499,-0.488464104,-1.115378051,-0.170866438,-0.4764514,-0.91248247,-1.009906358
500,-0.630062576,-1.432510014,-0.026028652,-0.207168445,-0.889181622,-0.950824194
501,-0.686701964,-1.502983784,0.222264696,0.21704443,-0.842579927,-0.870472451
502,-0.573423187,-1.414891572,0.139500247,0.774054378,-0.758696875,-0.766487842
503,-0.375185326,-1.273944033,-0.088101989,1.382707633,-0.628212128,-0.648323514
504,-0.120308077,-1.009667397,-0.336395336,1.902829505,-0.472096449,-0.527795899
505,0.24784795,-0.674916991,-0.688144246,2.238510997,-0.336951532,-0.411994858
506,0.502725199,-0.322548143,-0.915746481,2.374996878,-0.260058735,-0.310373536
507,0.842561531,0.117912917,-1.101966492,2.352864033,-0.243748142,-0.199299067
508,1.069119086,0.382189553,-1.164039829,2.146290807,-0.250738396,-0.081134739
509,1.380635724,0.593610862,-1.039893155,1.781098854,-0.260058735,0.048846022
510,1.522234196,0.80503217,-0.81229092,1.35688598,-0.26238882,0.176463496
511,1.777111445,0.822650613,-0.605379797,0.94005072,-0.274039244,0.299354397
512,2.060308389,0.928361267,-0.377777561,0.596991613,-0.297340091,0.417518726
513,2.116947778,0.928361267,-0.129484213,0.320331043,-0.302000261,0.526229907
514,2.116947778,0.80503217,-0.067410876,0.076869741,-0.292679922,0.632577803
515,2.116947778,0.575992419,-0.046719764,-0.063304948,-0.260058735,0.722382692
516,1.890390223,0.523137092,-0.212248663,-0.126014677,-0.227437548,0.807461008
517,1.833750834,0.276478898,-0.274321999,-0.166591561,-0.183165938,0.880722892
518,1.720472057,0.170768244,-0.481233123,-0.210857252,-0.131904073,0.949258202
519,1.522234196,0.135531359,-0.501924235,-0.244056521,-0.080642208,0.984707501
520,1.550553891,0.029820705,-0.377777561,-0.258811751,-0.013069749,1.017793513
521,1.267356947,0.047439147,-0.46054201,-0.244056521,0.073143387,1.050879524
522,1.210717558,0.06505759,-0.315704224,-0.188724407,0.171006947,1.06742253
523,1.125758475,0.206005129,-0.295013112,-0.100193024,0.273530677,1.069785817
524,0.955840309,0.276478898,-0.315704224,-0.015350449,0.369064153,1.07451239
525,0.785922143,0.294097341,-0.315704224,0.04735928,0.464597628,1.083965536
526,0.757602448,0.311715783,-0.336395336,0.073180933,0.571781527,1.086328823
527,0.531044893,0.487900207,-0.232939775,0.076869741,0.676635342,1.088692109
528,0.417766116,0.417426438,-0.046719764,0.076869741,0.765178563,1.091055396
529,0.474405505,0.470281765,0.036044685,0.091624971,0.839741276,1.112324975
530,0.559364588,0.523137092,0.036044685,0.110069009,0.90032348,1.128867981
531,0.474405505,0.575992419,0.118809135,0.135890662,0.974886192,1.126504694
532,0.587684282,0.575992419,0.139500247,0.158023508,1.04711882,1.135957841
533,0.474405505,0.664084631,0.118809135,0.172778739,1.10537094,1.147774273
534,0.587684282,0.681703074,0.098118022,0.161712316,1.158962889,1.15722742
535,0.531044893,0.699321516,0.139500247,0.143268278,1.214884924,1.171407139
536,0.474405505,0.628847746,0.201573584,0.113757817,1.275467128,1.173770426
537,0.474405505,0.628847746,0.139500247,0.080558548,1.331389162,1.166680566
538,0.417766116,0.646466189,0.139500247,0.036292857,1.380320942,1.152500847
539,0.417766116,0.540755534,0.139500247,-0.007972834,1.431582807,1.131231268
540,0.304487338,0.540755534,0.056735798,-0.063304948,1.487504842,1.100508542
541,0.276167644,0.593610862,0.139500247,-0.107570639,1.545756961,1.060332671
542,0.389446422,0.50551865,0.118809135,-0.1370811,1.601678995,1.020156799
543,0.191208561,0.646466189,0.160191359,-0.144458715,1.650610775,0.977617641
544,0.049610089,0.50551865,0.07742691,-0.151836331,1.697212471,0.927988623
545,0.24784795,0.628847746,0.284338033,-0.140769908,1.734493827,0.873633032
546,0.191208561,0.628847746,0.305029146,-0.12232587,1.767115014,0.819277441
547,0.219528255,0.575992419,0.367102482,-0.12232587,1.792745946,0.757831991
548,0.021290395,0.752176843,0.429175819,-0.12232587,1.795076031,0.679843534
549,-0.176947466,0.769795286,0.574013606,-0.092815409,1.799736201,0.61367151
550,-0.346865632,0.893124382,0.594704718,-0.055927333,1.797406116,0.575858925
551,-0.460144409,0.928361267,0.677469167,-0.04486091,1.785755692,0.53804634
552,-0.403505021,0.928361267,0.739542504,-0.022728064,1.764784929,0.490780609
553,-0.601742881,0.87550594,0.69816028,-0.011661642,1.748474336,0.441151591
554,-0.686701964,0.787413728,0.842998066,-0.019039257,1.739153997,0.379706141
555,-0.630062576,0.646466189,0.925762515,-0.007972834,1.729833658,0.322987263
556,-0.715021659,0.611229304,1.029218077,0.043670472,1.732163742,0.266268386
557,-0.715021659,0.558373977,1.049909189,0.102691394,1.729833658,0.200096362
558,-0.715021659,0.417426438,1.049909189,0.172778739,1.734493827,0.141014198
559,-0.715021659,0.346952668,1.049909189,0.261310121,1.743814166,0.081932034
560,-0.601742881,0.36457111,0.96714474,0.375663157,1.764784929,0.037029589
561,-0.601742881,0.311715783,0.925762515,0.523215461,1.774105268,0.01576001
562,-0.346865632,0.329334226,0.925762515,0.633879689,1.783425607,0.003943577
563,-0.346865632,0.382189553,0.905071403,0.722411072,1.795076031,-0.010236142
564,-0.375185326,0.399807995,0.905071403,0.759299148,1.797406116,0.027576443
565,-0.035348994,0.223623571,0.88438029,0.792498416,1.80905654,0.100838326
566,-0.120308077,0.294097341,0.987835852,0.777743186,1.830027303,0.067752314
567,0.021290395,0.311715783,0.905071403,0.729788687,1.832357387,0.039392876
568,0.219528255,0.258860456,0.780924729,0.659701342,1.813716709,0.041756162
569,0.276167644,0.223623571,0.760233617,0.560103537,1.788085777,0.048846022
570,0.191208561,0.170768244,0.61539583,0.427306463,1.736823912,0.110291472
571,0.304487338,0.135531359,0.636086943,0.287131774,1.704202725,0.136287625
572,0.304487338,-0.093508392,0.636086943,0.099002586,1.662261199,0.09847504
573,0.106249478,-0.181600604,0.718851392,-0.078060179,1.606339165,0.070115601
574,-0.176947466,-0.252074374,0.801615841,-0.225612483,1.548087046,0.051209308
575,-0.403505021,-0.463495682,0.925762515,-0.310455058,1.482844672,0.055935882
576,-0.799980742,-0.533969452,0.925762515,-0.328899096,1.394301451,0.029939729
577,-1.224776157,-0.763009203,0.863689178,-0.325210288,1.259156534,0.006306864
578,-1.621251878,-0.727772318,0.946453627,-0.325210288,1.107701024,0.032303016
579,-1.819489739,-0.710153876,0.88438029,-0.32152148,0.974886192,0.051209308
580,-2.0177276,-0.639680106,0.987835852,-0.280944597,0.877022632,0.070115601
581,-2.102686683,-0.51635101,1.2361292,-0.19979083,0.80245992,0.107928186
582,-2.0177276,-0.51635101,1.401658099,-0.070682563,0.751198055,0.150467344
583,-2.102686683,-0.428258798,1.712024783,0.06211451,0.702266275,0.195369789
584,-2.102686683,-0.322548143,1.918935907,0.202289199,0.641684071,0.230819087
585,-1.961088211,-0.269692816,1.918935907,0.32401985,0.581101867,0.259178526
586,-1.961088211,-0.216837489,1.898244794,0.394107195,0.515859493,0.289901251
587,-1.989407905,-0.023034622,1.794789233,0.38672958,0.438966696,0.365526421
588,-1.904448822,-0.287311258,1.670642559,0.242866083,0.39702517,0.488417322
589,-1.819489739,-0.498732567,1.277511425,-0.03010568,0.364403983,0.481327463
590,-1.989407905,-0.81586453,0.842998066,-0.328899096,0.313142118,0.497870469
591,-2.131006377,-1.150614936,0.387793595,-0.767867201,0.266540423,0.587675358
592,-2.074366988,-1.485365342,-0.232939775,-1.232656959,0.175667117,0.705839686
593,-1.677891267,-1.908207959,-0.729526471,-1.656869833,-0.00840958,0.805097722
594,-1.083177686,-2.242958365,-1.019202043,-1.955663249,-0.281029498,0.937441769
595,-0.346865632,-2.454379674,-1.143348717,-2.029439401,-0.541998992,1.107598402
596,0.24784795,-2.489616559,-0.874364257,-1.870820674,-0.686464248,1.291934754
597,0.332807033,-2.295813692,-0.315704224,-1.542516798,-0.719085434,1.457364813
598,0.077929783,-1.978681729,0.098118022,-1.140436769,-0.744716367,1.59679872
599,0.191208561,-1.643931323,0.677469167,-0.727290317,-0.826269334,1.710236475
600,0.276167644,-1.132996494,0.739542504,-0.428496901,-0.893841792,1.795314792
601,0.531044893,-0.939193627,0.863689178,-0.288322212,-0.910152385,1.842580523
602,0.587684282,-0.763009203,0.780924729,-0.29201102,-0.849570181,1.840217236
603,0.474405505,-0.657298549,0.677469167,-0.343654326,-0.740056197,1.771681926
604,0.24784795,-0.569206337,0.491249156,-0.362098364,-0.630542213,1.67242389
605,0.021290395,-0.498732567,0.098118022,-0.299388635,-0.562969755,1.570802568
606,-0.063668688,-0.44587724,-0.439850898,-0.210857252,-0.525688399,1.476271106
607,-0.148627771,-0.481114125,-1.08127538,-0.129703485,-0.497727381,1.405372509
608,-0.035348994,-0.357785028,-1.370950952,-0.085437794,-0.451125686,1.313204333
609,-0.375185326,-0.234455931,-1.536479851,-0.078060179,-0.378893058,1.21867287
610,-0.488464104,-0.146363719,-1.743390974,-0.081748986,-0.295010006,1.135957841
611,-0.573423187,0.047439147,-1.826155424,-0.103881832,-0.197146446,1.076875677
612,-0.630062576,0.294097341,-1.867537648,-0.144458715,-0.096952801,1.029609945
613,-0.346865632,0.646466189,-1.908919873,-0.196102022,0.010231098,1.001250507
614,-0.120308077,1.051690364,-1.826155424,-0.280944597,0.129065421,0.975254354
615,0.219528255,1.263111673,-1.764082087,-0.413741671,0.278190847,0.951621489
616,0.276167644,1.456914539,-1.70200875,-0.590804436,0.45061712,0.93035191
617,0.361126727,1.509769866,-1.495097626,-0.815821699,0.604402714,0.913808904
618,0.389446422,1.492151424,-1.143348717,-1.00026208,0.709256529,0.892539325
619,0.729282754,1.333585442,-0.957128706,-1.166258422,0.751198055,0.864179886
620,1.125758475,1.016453479,-0.605379797,-1.350698802,0.760518394,0.845273593
621,1.125758475,0.558373977,-0.501924235,-1.435541377,0.758188309,0.793281289
622,1.154078169,0.100294474,-0.274321999,-1.490873491,0.762848479,0.743652271
623,1.239037252,-0.357785028,-0.150175326,-1.442918992,0.753528139,0.675116961
624,1.210717558,-0.763009203,-0.067410876,-1.280611458,0.69527602,0.582948785
625,1.182397864,-1.009667397,-0.150175326,-0.989195657,0.59741246,0.490780609
626,1.154078169,-1.203470263,-0.19155755,-0.587115628,0.497218815,0.398612433
627,1.069119086,-1.273944033,-0.232939775,-0.12232587,0.406345509,0.313534117
628,0.927520614,-1.344417802,-0.315704224,0.390418387,0.327122627,0.244998807
629,0.587684282,-1.168233378,-0.439850898,0.877340991,0.257220084,0.183553356
630,0.191208561,-0.8863383,-0.377777561,1.316309096,0.19197771,0.126834478
631,-0.233586855,-0.727772318,-0.46054201,1.696256279,0.1477061,0.08429532
632,-0.545103493,-0.44587724,-0.563997572,1.969228042,0.110424743,0.037029589
633,-0.884939825,-0.234455931,-0.626070909,2.039315386,0.075473472,-0.017326002
634,-1.139817074,-0.111126834,-0.626070909,1.869630237,0.028871776,-0.081134739
635,-1.366374629,0.047439147,-0.377777561,1.526571129,-0.038700682,-0.159123196
636,-1.649571573,0.135531359,-0.295013112,1.146623946,-0.10627314,-0.251291372
637,-1.649571573,0.100294474,-0.19155755,0.825697685,-0.157535005,-0.343459548
638,-1.734530656,0.100294474,-0.046719764,0.560103537,-0.194816361,-0.419084718
639,-1.706210962,0.117912917,0.056735798,0.397796002,-0.232097718,-0.492346601
640,-1.706210962,0.100294474,0.056735798,0.346152696,-0.260058735,-0.549065479
641,-1.649571573,0.047439147,-0.212248663,0.353530311,-0.285689667,-0.593967923
642,-1.479653407,0.082676032,-0.212248663,0.383040772,-0.304330346,-0.641233654
643,-1.338054935,0.100294474,-0.253630887,0.408862425,-0.320640939,-0.686136099
644,-1.139817074,0.223623571,-0.398468673,0.405173618,-0.332291363,-0.726311971
645,-1.083177686,0.311715783,-0.46054201,0.368285542,-0.353262126,-0.761761269
646,-0.998218602,0.346952668,-0.481233123,0.305575812,-0.383553228,-0.794847281
647,-0.941579214,0.540755534,-0.439850898,0.224422045,-0.434815093,-0.809027
648,-0.715021659,0.575992419,-0.481233123,0.13957947,-0.502387551,-0.82320672
649,-0.573423187,0.628847746,-0.481233123,0.073180933,-0.567629924,-0.82320672
650,-0.460144409,0.681703074,-0.46054201,0.021537627,-0.616561705,-0.820843433
651,-0.375185326,0.734558401,-0.501924235,-0.019039257,-0.665493485,-0.813753574
652,-0.20526716,0.787413728,-0.501924235,-0.055927333,-0.707435011,-0.799573854
653,-0.0070293,0.840269055,-0.46054201,-0.107570639,-0.735396028,-0.787757421
654,0.077929783,0.928361267,-0.377777561,-0.181346791,-0.763357045,-0.780667562
655,0.162888867,0.928361267,-0.357086449,-0.262500559,-0.777337554,-0.773577702
656,0.219528255,0.94597971,-0.336395336,-0.365787172,-0.779667638,-0.761761269
657,0.389446422,0.998835037,-0.212248663,-0.458007362,-0.779667638,-0.749944836
658,0.531044893,0.928361267,-0.19155755,-0.542849937,-0.76568713,-0.738128404
659,0.644323671,0.822650613,-0.088101989,-0.638758934,-0.737726112,-0.726311971
660,0.70096306,0.80503217,-0.088101989,-0.723601509,-0.707435011,-0.721585398
661,0.927520614,0.716939958,-0.005337539,-0.790000046,-0.679473993,-0.716858824
662,0.814241837,0.611229304,-0.026028652,-0.834265737,-0.653843061,-0.714495538
663,0.842561531,0.646466189,0.056735798,-0.867465006,-0.635202383,-0.709768965
664,0.814241837,0.50551865,0.118809135,-0.893286659,-0.623551959,-0.712132251
665,0.70096306,0.470281765,0.098118022,-0.911730697,-0.623551959,-0.702679105
666,0.70096306,0.43504488,0.139500247,-0.915419505,-0.630542213,-0.683772813
667,0.616003976,0.311715783,0.222264696,-0.915419505,-0.656173146,-0.662503234
668,0.587684282,0.311715783,0.201573584,-0.878531429,-0.691124417,-0.648323514
669,0.417766116,0.258860456,0.242955809,-0.826888122,-0.719085434,-0.629417222
670,0.44608581,0.258860456,0.222264696,-0.745734355,-0.747046452,-0.603421069
671,0.389446422,0.241242014,0.34641137,-0.631381319,-0.777337554,-0.572698344
672,0.332807033,0.241242014,0.325720258,-0.502273053,-0.807628656,-0.537249046
673,0.191208561,0.241242014,0.429175819,-0.380542402,-0.823939249,-0.501799747
674,0.191208561,0.241242014,0.470558044,-0.277255789,-0.837919758,-0.461623876
675,0.049610089,0.417426438,0.408484707,-0.19979083,-0.835589673,-0.423811291
676,0.021290395,0.43504488,0.491249156,-0.151836331,-0.823939249,-0.367092413
677,0.049610089,0.470281765,0.532631381,-0.1370811,-0.819279079,-0.310373536
678,0.134569172,0.50551865,0.553322493,-0.129703485,-0.80995874,-0.258381231
679,0.106249478,0.50551865,0.594704718,-0.107570639,-0.788987977,-0.20402564
680,0.021290395,0.575992419,0.594704718,-0.107570639,-0.768017214,-0.149670049
681,0.021290395,0.558373977,0.553322493,-0.140769908,-0.758696875,-0.090587885
682,-0.063668688,0.43504488,0.429175819,-0.19979083,-0.76568713,-0.029142435
683,0.106249478,0.575992419,0.656778055,-0.277255789,-0.775007469,0.037029589
684,-0.0070293,0.611229304,0.656778055,-0.273566982,-0.786657893,0.081932034
685,-0.120308077,0.523137092,0.61539583,-0.266189366,-0.795978232,0.138650911
686,-0.091988383,0.523137092,0.801615841,-0.255122944,-0.812288825,0.190643216
687,-0.091988383,0.487900207,0.801615841,-0.240367713,-0.828599418,0.24263552
688,-0.148627771,0.452663322,0.905071403,-0.21454606,-0.849570181,0.287537965
689,-0.290226243,0.382189553,0.905071403,-0.170280369,-0.865880775,0.330077123
690,-0.318545938,0.36457111,0.905071403,-0.118637062,-0.879861283,0.372616281
691,-0.431824715,0.329334226,1.049909189,-0.063304948,-0.889181622,0.410428866
692,-0.545103493,0.276478898,1.153364751,0.014160012,-0.900832046,0.452968024
693,-0.601742881,0.153149802,1.174055863,0.095313779,-0.91714264,0.486054036
694,-0.601742881,0.06505759,1.2361292,0.187533969,-0.931123148,0.516776761
695,-0.573423187,-0.00541618,1.443040323,0.301887005,-0.940443487,0.533319767
696,-0.516783798,-0.093508392,1.484422548,0.434684078,-0.947433742,0.5451362
697,-0.431824715,-0.199219046,1.463731435,0.560103537,-0.949763826,0.547499487
698,-0.375185326,-0.199219046,1.401658099,0.667078958,-0.938113403,0.5451362
699,-0.261906549,-0.269692816,1.298202537,0.737166302,-0.910152385,0.533319767
700,-0.120308077,-0.37540347,0.987835852,0.777743186,-0.86355069,0.509686902
701,0.106249478,-0.340166586,0.88438029,0.766676763,-0.791318062,0.481327463
702,0.417766116,-0.340166586,0.677469167,0.715033456,-0.714425265,0.436425018
703,0.672643365,-0.322548143,0.408484707,0.622813266,-0.632872298,0.367889708
704,0.729282754,-0.37540347,0.387793595,0.486327385,-0.541998992,0.282811392
705,0.814241837,-0.304929701,0.34641137,0.32401985,-0.45811594,0.188279929
706,0.785922143,-0.287311258,0.387793595,0.172778739,-0.388213397,0.100838326
707,0.757602448,-0.269692816,0.574013606,0.043670472,-0.325301108,0.027576443
708,0.870881226,-0.287311258,0.511940269,-0.037483295,-0.260058735,-0.033869008
709,0.955840309,-0.234455931,0.677469167,-0.081748986,-0.176175683,-0.095314458
710,0.984160003,-0.07588995,0.822306954,-0.107570639,-0.068991784,-0.161486482
711,1.125758475,-0.128745277,0.96714474,-0.107570639,0.056832794,-0.256017945
712,1.154078169,0.047439147,1.029218077,-0.103881832,0.194307795,-0.404904998
713,1.125758475,0.100294474,1.132673638,-0.092815409,0.29450144,-0.482893455
714,1.239037252,0.082676032,1.2361292,-0.096504217,0.371394237,-0.523069326
715,1.210717558,0.029820705,1.277511425,-0.1370811,0.44595695,-0.598694496
716,1.323996336,-0.128745277,1.174055863,-0.221923675,0.483238306,-0.67195638
717,1.408955419,-0.199219046,0.987835852,-0.339965518,0.485568391,-0.712132251
718,1.465594807,-0.622061664,0.842998066,-0.487517823,0.487898476,-0.745218263
719,1.550553891,-0.974430512,0.449866932,-0.631381319,0.4995489,-0.811390287
720,1.380635724,-1.132996494,0.180882472,-0.75311197,0.54382051,-0.901195176
721,1.154078169,-1.379654687,-0.19155755,-0.841643353,0.65100441,-0.986273493
722,0.89920092,-1.538220669,-0.232939775,-0.919108312,0.79779975,-1.061898663
723,0.842561531,-1.591075996,-0.088101989,-0.955996388,0.946925175,-1.151703552
724,0.955840309,-1.573457554,-0.088101989,-0.963374004,1.086730261,-1.26277802
725,1.040799392,-1.502983784,-0.088101989,-0.978129234,1.219545093,-1.399848641
726,1.097438781,-1.432510014,-0.150175326,-1.022394925,1.359350179,-1.558188841
727,1.012479698,-1.379654687,-0.150175326,-1.09248227,1.50148535,-1.721255614
728,1.040799392,-1.203470263,-0.150175326,-1.16994723,1.617989589,-1.870142667
729,0.984160003,-1.062522724,0.139500247,-1.217901728,1.708862895,-1.988306995
730,0.870881226,-0.8863383,0.325720258,-1.203146498,1.76012476,-2.068658738
731,0.842561531,-0.8863383,0.511940269,-1.118303923,1.790415861,-2.175006634
732,0.191208561,-0.498732567,0.574013606,-0.970751619,1.76012476,-2.333346833
733,0.106249478,-0.410640355,0.470558044,-0.808444084,1.671581538,-2.219909078
734,0.134569172,-0.410640355,0.470558044,-0.679335818,1.587698487,-2.056842306
735,0.077929783,-0.304929701,0.222264696,-0.612937281,1.480514587,-1.95049441
736,0.134569172,-0.322548143,-0.067410876,-0.598182051,1.329059077,-1.844146515
737,0.219528255,-0.287311258,-0.419159786,-0.56867159,1.158962889,-1.695259461
738,0.361126727,-0.216837489,-0.832982032,-0.49120663,1.023817973,-1.520376256
739,0.44608581,-0.111126834,-1.288186503,-0.376853595,0.916634073,-1.378579062
740,0.389446422,0.100294474,-1.764082087,-0.314143865,0.790809496,-1.272231167
741,0.474405505,0.329334226,-1.846846536,-0.32152148,0.630033647,-1.182426277
742,0.587684282,0.523137092,-1.908919873,-0.373164787,0.45061712,-1.130433973
743,0.531044893,0.681703074,-1.826155424,-0.458007362,0.280520931,-1.099711248
744,0.474405505,0.734558401,-1.681317637,-0.531783514,0.1477061,-1.076078382
745,0.077929783,0.80503217,-1.515788739,-0.579738013,0.054502709,-1.038265797
746,-0.063668688,0.80503217,-1.391642065,-0.612937281,-0.00374941,-0.988636779
747,-0.261906549,0.716939958,-1.267495391,-0.638758934,-0.048021021,-0.936644475
748,-0.20526716,0.628847746,-1.143348717,-0.679335818,-0.073651953,-0.901195176
749,-0.375185326,0.329334226,-0.853673144,-0.719912702,-0.068991784,-0.879925597
750,-0.573423187,0.082676032,-0.915746481,-0.75311197,-0.027050258,-0.846839585
751,-0.715021659,-0.269692816,-0.750217583,-0.782622431,0.003240844,-0.818480147
752,-0.715021659,-0.727772318,-0.729526471,-0.782622431,0.005570929,-0.778304275
753,-0.828300436,-1.080141166,-0.626070909,-0.701468664,-0.006079495,-0.723948684
754,-0.743341353,-1.32679936,-0.584688684,-0.520717091,0.000910759,-0.660139947
755,-0.743341353,-1.485365342,-0.584688684,-0.210857252,0.033531946,-0.586878064
756,-0.743341353,-1.485365342,-0.646762021,0.209666815,0.082463726,-0.511252894
757,-0.601742881,-1.309180918,-0.584688684,0.711344649,0.124405252,-0.426174577
758,-0.290226243,-1.25632559,-0.605379797,1.224088906,0.184987456,-0.336369688
759,0.106249478,-1.080141166,-0.750217583,1.644612973,0.264210338,-0.248928085
760,0.559364588,-0.639680106,-0.791599807,1.936028774,0.338773051,-0.170939629
761,0.984160003,-0.269692816,-1.019202043,2.07989227,0.366734068,-0.097677745
762,1.380635724,0.153149802,-1.205422054,2.061448232,0.34809339,-0.024415862
763,1.550553891,0.329334226,-1.515788739,1.869630237,0.315472203,0.051209308
764,2.031988695,0.558373977,-1.288186503,1.445417362,0.296831525,0.148104057
765,2.173587167,0.664084631,-1.039893155,1.047026141,0.301491694,0.237908947
766,2.286865944,0.734558401,-0.832982032,0.689211803,0.329452712,0.322987263
767,2.428464416,0.628847746,-0.501924235,0.419928848,0.369064153,0.424608585
768,2.343505333,0.628847746,-0.295013112,0.30926462,0.415665848,0.502597042
769,2.315185638,0.523137092,-0.274321999,0.294509389,0.462267543,0.594765218
770,2.145267472,0.329334226,-0.212248663,0.298198197,0.490228561,0.668027101
771,2.116947778,0.258860456,-0.295013112,0.316642235,0.520519663,0.722382692
772,1.833750834,0.153149802,-0.398468673,0.357219119,0.567121358,0.77910157
773,1.663832668,0.117912917,-0.481233123,0.371974349,0.588092121,0.821640728
774,1.493914502,0.117912917,-0.563997572,0.349841504,0.595082375,0.84054702
775,1.182397864,0.117912917,-0.584688684,0.32401985,0.641684071,0.845273593
776,0.984160003,0.100294474,-0.688144246,0.305575812,0.723237037,0.85472674
777,0.785922143,0.082676032,-0.563997572,0.298198197,0.804790004,0.861816599
778,0.587684282,0.170768244,-0.605379797,0.294509389,0.886342971,0.868906459
779,0.587684282,0.206005129,-0.501924235,0.283442967,0.95391543,0.866543173
780,0.304487338,0.417426438,-0.522615347,0.253932506,1.014497634,0.859453313
781,0.219528255,0.558373977,-0.481233123,0.21704443,1.075079838,0.835820447
782,-0.120308077,0.540755534,-0.46054201,0.128513047,1.128671787,0.852363453
783,-0.091988383,0.558373977,-0.398468673,0.010471204,1.172943398,0.875996319
784,-0.091988383,0.664084631,-0.315704224,-0.096504217,1.226535347,0.899629184
785,-0.091988383,0.646466189,-0.212248663,-0.19979083,1.287117551,0.92326205
786,-0.120308077,0.699321516,-0.212248663,-0.284633404,1.331389162,0.942168343
787,-0.120308077,0.716939958,-0.046719764,-0.351031941,1.361680264,0.958711348
788,-0.120308077,0.646466189,-0.026028652,-0.413741671,1.380320942,0.965801208
789,-0.120308077,0.628847746,0.07742691,-0.446940939,1.396631536,0.970527781
790,-0.176947466,0.611229304,0.07742691,-0.458007362,1.39896162,0.987070787
791,-0.120308077,0.540755534,0.118809135,-0.461696169,1.39896162,0.989434074
792,-0.035348994,0.50551865,0.098118022,-0.4764514,1.410612044,0.984707501
793,-0.091988383,0.470281765,-0.005337539,-0.465384977,1.424592553,0.979980928
794,0.134569172,0.382189553,0.056735798,-0.458007362,1.45255357,0.963437922
795,0.106249478,0.36457111,0.015353573,-0.432185709,1.489834926,0.939805056
796,0.049610089,0.399807995,-0.108793101,-0.387920017,1.529446367,0.91617219
797,0.191208561,0.36457111,-0.088101989,-0.328899096,1.569057808,0.890176038
798,0.191208561,0.382189553,-0.108793101,-0.284633404,1.60866925,0.861816599
799,0.162888867,0.452663322,-0.170866438,-0.22930129,1.648280691,0.831093874
800,0.219528255,0.523137092,-0.150175326,-0.177657984,1.690222216,0.793281289
801,0.191208561,0.646466189,-0.088101989,-0.126014677,1.725173488,0.746015558
802,0.304487338,0.558373977,-0.129484213,-0.111259447,1.748474336,0.691659967
803,0.24784795,0.716939958,-0.088101989,-0.118637062,1.762454844,0.618398083
804,0.049610089,0.87550594,0.098118022,-0.111259447,1.788085777,0.575858925
805,-0.035348994,0.87550594,-0.005337539,-0.074371371,1.811386624,0.5451362
806,-0.0070293,0.893124382,0.098118022,-0.059616141,1.811386624,0.514413475
807,0.049610089,0.80503217,0.036044685,-0.089126601,1.792745946,0.474237603
808,-0.091988383,0.840269055,0.34641137,-0.188724407,1.774105268,0.429335158
809,-0.148627771,0.998835037,0.305029146,-0.162902753,1.757794675,0.377342854
810,-0.290226243,0.787413728,0.305029146,-0.126014677,1.741484081,0.389159287
811,-0.460144409,0.681703074,0.34641137,-0.111259447,1.757794675,0.304080971
812,-0.516783798,0.558373977,0.511940269,-0.063304948,1.743814166,0.23554566
813,-0.431824715,0.470281765,0.69816028,0.021537627,1.725173488,0.183553356
814,-0.375185326,0.487900207,0.69816028,0.091624971,1.718183234,0.124471192
815,-0.346865632,0.258860456,0.718851392,0.176467546,1.729833658,0.051209308
816,-0.375185326,0.188386686,0.863689178,0.268687736,1.75546459,-0.017326002
817,-0.460144409,0.153149802,0.842998066,0.38672958,1.774105268,-0.100041032
818,-0.488464104,0.135531359,0.801615841,0.508460231,1.783425607,-0.170939629
819,-0.460144409,0.06505759,0.842998066,0.596991613,1.778765438,-0.237111652
820,-0.431824715,0.029820705,0.801615841,0.685522996,1.769445099,-0.300920389
821,-0.431824715,0.047439147,0.88438029,0.766676763,1.764784929,-0.345822834
822,-0.516783798,0.082676032,0.946453627,0.829386492,1.76012476,-0.371818986
823,-0.488464104,0.029820705,0.987835852,0.877340991,1.739153997,-0.388361992
824,-0.65838227,0.100294474,1.070600301,0.906851452,1.708862895,-0.388361992
825,-0.686701964,-0.00541618,1.008526964,0.899473837,1.636630267,-0.308010249
826,-0.686701964,-0.146363719,0.987835852,0.888407414,1.578378148,-0.21820536
827,-0.998218602,-0.07588995,0.987835852,0.814631262,1.522456113,-0.270197664
828,-0.969898908,-0.216837489,0.905071403,0.729788687,1.429252722,-0.284377384
829,-0.998218602,-0.199219046,0.88438029,0.637568497,1.338379416,-0.246564799
830,-0.969898908,-0.287311258,0.780924729,0.526904269,1.261486619,-0.192209208
831,-0.969898908,-0.304929701,0.780924729,0.40148481,1.172943398,-0.14258019
832,-1.026538297,-0.357785028,0.801615841,0.283442967,1.063429414,-0.102404318
833,-1.168136769,-0.234455931,0.863689178,0.169089931,0.923624328,-0.064591733
834,-1.168136769,-0.393021913,0.574013606,0.054736895,0.746537885,0.053572595
835,-1.253095852,-0.304929701,0.594704718,-0.03010568,0.602072629,0.110291472
836,-1.507973101,-0.287311258,0.491249156,-0.148147523,0.443626865,0.08429532
837,-1.479653407,-0.163982162,0.367102482,-0.280944597,0.278190847,0.115018046
838,-1.479653407,-0.216837489,0.574013606,-0.413741671,0.157026439,0.16701035
839,-1.536292795,-0.322548143,0.842998066,-0.494895438,0.077803557,0.216639368
840,-1.451333712,-0.410640355,0.987835852,-0.4764514,0.031201861,0.270994959
841,-1.30973524,-0.37540347,1.256820312,-0.362098364,-0.001419326,0.320623977
842,-1.224776157,-0.463495682,1.298202537,-0.207168445,-0.036370597,0.363163135
843,-1.281415546,-0.569206337,1.256820312,-0.078060179,-0.05734136,0.408065579
844,-1.253095852,-0.674916991,1.091291414,-0.022728064,-0.078312123,0.455331311
845,-1.30973524,-0.8863383,0.801615841,-0.066993756,-0.087632462,0.507323615
846,-1.507973101,-1.009667397,0.532631381,-0.210857252,-0.115593479,0.663300528
847,-1.366374629,-1.273944033,0.160191359,-0.435874516,-0.120253649,0.816914155
848,-1.507973101,-1.538220669,-0.377777561,-0.705157471,-0.220447294,0.859453313
849,-1.168136769,-1.732023535,-0.522615347,-0.933863543,-0.472096449,0.942168343
850,-0.573423187,-1.820115747,-0.54330646,-1.037150156,-0.76102696,1.098145256
851,-0.035348994,-1.802497305,-0.336395336,-0.989195657,-0.96607442,1.287208181
852,0.219528255,-1.573457554,0.180882472,-0.804755277,-1.045297302,1.4597281
853,0.106249478,-1.344417802,0.780924729,-0.542849937,-1.059277811,1.60388858
854,0.191208561,-0.974430512,1.2361292,-0.262500559,-1.06859815,1.693693469
855,0.304487338,-0.622061664,1.422349211,-0.059616141,-1.06859815,1.766955353
856,0.587684282,-0.44587724,1.50511366,-0.000595219,-1.01034603,1.814221084
857,0.89920092,-0.410640355,1.339584762,-0.04486091,-0.879861283,1.811857798
858,0.984160003,-0.252074374,1.256820312,-0.159213946,-0.709765095,1.769318639
859,1.012479698,-0.428258798,0.905071403,-0.288322212,-0.535008738,1.750412347
860,0.955840309,-0.463495682,0.449866932,-0.39898644,-0.346271871,1.606251867
861,0.587684282,-0.357785028,0.036044685,-0.446940939,-0.206466785,1.393556076
862,0.304487338,-0.37540347,-0.439850898,-0.439563324,-0.131904073,1.213946297
863,0.077929783,-0.393021913,-0.895055369,-0.395297633,-0.099282886,1.07451239
864,-0.091988383,-0.269692816,-1.412333177,-0.365787172,-0.103943055,0.961074635
865,-0.148627771,-0.07588995,-1.660626525,-0.365787172,-0.087632462,0.868906459
866,-0.488464104,-0.058271507,-1.784773199,-0.428496901,-0.020060004,0.790918003
867,-0.630062576,-0.00541618,-1.681317637,-0.520717091,0.08945398,0.767285137
868,-0.715021659,0.082676032,-1.639935413,-0.624003704,0.208288304,0.748378844
869,-0.828300436,0.135531359,-1.453715402,-0.694091049,0.317802288,0.746015558
870,-0.771661047,0.206005129,-1.391642065,-0.730979125,0.417995933,0.757831991
871,-0.686701964,0.417426438,-1.288186503,-0.719912702,0.49488873,0.77910157
872,-0.601742881,0.540755534,-1.267495391,-0.694091049,0.564791273,0.802734435
873,-0.403505021,0.681703074,-1.246804279,-0.66089178,0.64634424,0.833457161
874,-0.318545938,0.769795286,-1.164039829,-0.657202972,0.741877716,0.866543173
875,0.134569172,0.716939958,-0.874364257,-0.671958203,0.830420937,0.885449465
876,0.276167644,0.611229304,-0.729526471,-0.64613655,0.888673056,0.885449465
877,0.616003976,0.399807995,-0.501924235,-0.616626089,0.914303988,0.887812752
878,0.89920092,0.047439147,-0.336395336,-0.579738013,0.911973904,0.866543173
879,1.012479698,-0.322548143,-0.253630887,-0.494895438,0.886342971,0.812187582
880,1.097438781,-0.44587724,-0.170866438,-0.332587903,0.853721784,0.734199125
881,1.125758475,-0.657298549,-0.212248663,-0.081748986,0.80245992,0.646757522
882,1.210717558,-0.833482973,-0.212248663,0.21704443,0.741877716,0.540409627
883,1.097438781,-0.903956742,-0.274321999,0.523215461,0.681295512,0.429335158
884,1.069119086,-0.939193627,-0.377777561,0.810942454,0.639353986,0.330077123
885,0.955840309,-0.921575185,-0.419159786,1.113424678,0.632363731,0.233182374
886,0.672643365,-0.81586453,-0.419159786,1.390085248,0.644014155,0.143377484
887,0.531044893,-0.727772318,-0.274321999,1.629857742,0.653334494,0.063025741
888,0.134569172,-0.481114125,-0.439850898,1.810609315,0.655664579,-0.026779148
889,-0.290226243,-0.287311258,-0.522615347,1.847497391,0.683625596,-0.126037184
890,-0.516783798,-0.07588995,-0.584688684,1.766343624,0.734887461,-0.225295219
891,-0.686701964,0.117912917,-0.522615347,1.596658474,0.762848479,-0.331643115
892,-0.913259519,0.100294474,-0.481233123,1.379018825,0.753528139,-0.442717583
893,-0.884939825,0.135531359,-0.336395336,1.076536602,0.730227292,-0.544338905
894,-1.083177686,0.206005129,-0.232939775,0.869963376,0.704596359,-0.645960228
895,-1.083177686,0.188386686,-0.398468673,0.751921532,0.69527602,-0.73340183
896,-1.224776157,0.188386686,-0.522615347,0.644946112,0.697606105,-0.783030848
897,-1.139817074,0.117912917,-0.501924235,0.552725922,0.69527602,-0.827933293
898,-1.168136769,0.153149802,-0.563997572,0.467883347,0.688285766,-0.856292732
899,-1.139817074,0.206005129,-0.626070909,0.449439309,0.683625596,-0.870472451
900,-0.969898908,0.153149802,-0.770908695,0.460505732,0.690615851,-0.870472451
901,-1.054857991,0.258860456,-0.667453134,0.453128116,0.690615851,-0.868109164
902,-0.969898908,0.329334226,-0.584688684,0.442061694,0.681295512,-0.863382591
903,-0.743341353,0.399807995,-0.584688684,0.438372886,0.664984918,-0.856292732
904,-0.715021659,0.523137092,-0.481233123,0.438372886,0.630033647,-0.851566159
905,-0.516783798,0.593610862,-0.336395336,0.434684078,0.576441697,-0.844476299
906,-0.403505021,0.681703074,-0.336395336,0.430995271,0.513529408,-0.844476299
907,-0.290226243,0.734558401,-0.315704224,0.427306463,0.448287035,-0.851566159
908,-0.091988383,0.752176843,-0.212248663,0.423617656,0.392365,-0.868109164
909,0.021290395,0.87550594,-0.232939775,0.390418387,0.34343322,-0.882288884
910,0.134569172,0.822650613,-0.150175326,0.342463888,0.303821779,-0.905921749
911,0.162888867,0.963598152,-0.067410876,0.279754159,0.271200592,-0.929554615
912,0.361126727,0.910742825,-0.170866438,0.183845161,0.24090949,-0.953187481
913,0.417766116,0.87550594,-0.129484213,0.080558548,0.222268812,-0.972093773
914,0.389446422,0.769795286,-0.170866438,-0.037483295,0.205958219,-0.986273493
915,0.361126727,0.752176843,-0.108793101,-0.151836331,0.187317541,-1.002816499
916,0.332807033,0.664084631,-0.046719764,-0.255122944,0.164016693,-1.009906358
917,0.389446422,0.50551865,-0.108793101,-0.332587903,0.133725591,-1.007543072
918,0.276167644,0.50551865,-0.005337539,-0.38423121,0.101104404,-1.000453212
919,0.24784795,0.399807995,0.036044685,-0.413741671,0.066153133,-0.991000066
920,0.134569172,0.329334226,0.160191359,-0.413741671,0.028871776,-0.972093773
921,0.049610089,0.170768244,0.036044685,-0.38423121,-0.017729919,-0.946097621
922,-0.120308077,0.153149802,0.098118022,-0.32152148,-0.073651953,-0.917738182
923,-0.063668688,0.117912917,0.118809135,-0.232990098,-0.131904073,-0.882288884
924,-0.120308077,0.170768244,0.118809135,-0.144458715,-0.190156192,-0.842113012
925,-0.148627771,0.170768244,0.056735798,-0.052238525,-0.255398565,-0.801937141
926,-0.176947466,0.170768244,0.015353573,0.014160012,-0.313650685,-0.74758155
927,-0.148627771,0.241242014,0.160191359,0.069492126,-0.369572719,-0.693225959
928,-0.063668688,0.276478898,0.242955809,0.132201855,-0.427824838,-0.643596941
929,-0.0070293,0.329334226,0.305029146,0.180156354,-0.467436279,-0.58924135
930,-0.091988383,0.470281765,0.305029146,0.224422045,-0.495397297,-0.539612332
931,-0.091988383,0.487900207,0.367102482,0.250243698,-0.518698144,-0.487620028
932,0.021290395,0.611229304,0.429175819,0.276065351,-0.548989246,-0.43090115
933,-0.091988383,0.664084631,0.387793595,0.360907926,-0.579280348,-0.381272133
934,-0.035348994,0.699321516,0.532631381,0.397796002,-0.611901535,-0.310373536
935,-0.0070293,0.699321516,0.532631381,0.430995271,-0.639862552,-0.258381231
936,0.106249478,0.734558401,0.594704718,0.419928848,-0.6631634,-0.199299067
937,0.134569172,0.681703074,0.594704718,0.371974349,-0.681804078,-0.13549033
938,0.077929783,0.681703074,0.677469167,0.305575812,-0.698114671,-0.074044879
939,-0.0070293,0.716939958,0.760233617,0.253932506,-0.723745604,-0.012599429
940,0.049610089,0.681703074,0.842998066,0.198600392,-0.747046452,0.053572595
941,0.049610089,0.664084631,0.905071403,0.165401123,-0.777337554,0.117381332
942,-0.0070293,0.628847746,0.96714474,0.158023508,-0.816948995,0.178826783
943,0.021290395,0.523137092,1.070600301,0.180156354,-0.851900266,0.237908947
944,-0.091988383,0.470281765,1.070600301,0.220733237,-0.907822301,0.299354397
945,-0.261906549,0.417426438,1.132673638,0.272376544,-0.96607442,0.358436562
946,-0.318545938,0.382189553,1.132673638,0.312953428,-1.038307048,0.410428866
947,-0.488464104,0.329334226,1.194746975,0.346152696,-1.124520184,0.455331311
948,-0.686701964,0.241242014,1.2361292,0.394107195,-1.217723575,0.507323615
949,-0.856620131,0.135531359,1.298202537,0.464194539,-1.322577389,0.564042492
950,-0.743341353,0.082676032,1.360275874,0.519526653,-1.436751543,0.608944937
951,-0.771661047,-0.023034622,1.360275874,0.589613998,-1.534615103,0.637304376
952,-0.884939825,-0.00541618,1.256820312,0.670767765,-1.595197307,0.672753674
953,-0.913259519,-0.00541618,1.049909189,0.744543917,-1.627818494,0.729472552
954,-0.743341353,0.012202262,0.842998066,0.777743186,-1.630148579,0.757831991
955,-0.601742881,0.100294474,0.532631381,0.748232725,-1.61616807,0.76492185
956,-0.488464104,0.06505759,0.160191359,0.630190882,-1.578886714,0.748378844
957,-0.063668688,-0.023034622,0.160191359,0.427306463,-1.501993917,0.649120809
958,-0.035348994,0.06505759,0.036044685,0.150645893,-1.434421458,0.559315919
959,0.24784795,-0.111126834,0.015353573,-0.148147523,-1.369179085,0.549862773
960,0.332807033,-0.216837489,0.325720258,-0.421119286,-1.292286287,0.488417322
961,0.276167644,-0.269692816,0.636086943,-0.627692512,-1.241024423,0.422245299
962,0.44608581,-0.498732567,0.822306954,-0.734667932,-1.194422727,0.344256842
963,0.70096306,-0.586824779,0.925762515,-0.749423163,-1.126850269,0.270994959
964,1.125758475,-0.639680106,0.987835852,-0.712535087,-1.031316793,0.178826783
965,1.210717558,-0.533969452,1.029218077,-0.649825357,-0.91714264,0.063025741
966,1.522234196,-0.533969452,1.298202537,-0.590804436,-0.793648147,-0.069318306
967,1.720472057,-0.44587724,1.360275874,-0.524405899,-0.688794332,-0.208752214
968,1.918709917,-0.498732567,1.401658099,-0.450629747,-0.602581196,-0.35527598
969,2.031988695,-0.586824779,1.525804772,-0.376853595,-0.541998992,-0.501799747
970,2.371825027,-0.868719858,1.380966986,-0.310455058,-0.481416788,-0.693225959
971,2.116947778,-0.780627646,1.277511425,-0.284633404,-0.397533736,-1.000453212
972,2.145267472,-0.95681207,0.905071403,-0.303077442,-0.378893058,-1.090258101
973,2.230226555,-1.185851821,0.532631381,-0.332587903,-0.343941787,-1.1257074
974,2.031988695,-1.502983784,0.201573584,-0.402675248,-0.246078226,-1.243871728
975,1.833750834,-1.450128457,0.242955809,-0.446940939,-0.068991784,-1.440024513
976,1.607193279,-1.414891572,0.387793595,-0.428496901,0.159356523,-1.581821706
977,1.182397864,-1.309180918,0.553322493,-0.354720749,0.406345509,-1.645630444
978,1.097438781,-1.097759609,0.69816028,-0.317832673,0.620713308,-1.711802467
979,1.125758475,-0.95681207,0.69816028,-0.38423121,0.758188309,-1.822876936
980,1.097438781,-0.763009203,0.656778055,-0.598182051,0.828090852,-1.95758427
981,1.295676641,-0.639680106,0.470558044,-0.911730697,0.879352717,-2.014303147
982,1.522234196,-0.657298549,0.574013606,-1.280611458,0.956245514,-2.03320944
983,1.493914502,-0.639680106,0.636086943,-1.586782489,1.042458651,-2.03320944
984,1.493914502,-0.710153876,0.553322493,-1.771222869,1.112361194,-2.016666434
985,1.267356947,-0.745390761,0.718851392,-1.837621406,1.15430272,-1.967037416
986,1.125758475,-0.81586453,0.69816028,-1.756467639,1.163623059,-1.891412246
987,0.757602448,-0.798246088,0.905071403,-1.590471296,1.126341702,-1.792154211
988,0.616003976,-0.763009203,0.88438029,-1.347009995,1.044788736,-1.683443029
989,0.502725199,-0.780627646,0.69816028,-1.110926308,0.925954412,-1.548735695
990,0.332807033,-0.692535434,0.429175819,-0.893286659,0.788479411,-1.399848641
991,0.332807033,-0.745390761,-0.026028652,-0.742045547,0.634693816,-1.260414734
992,0.417766116,-0.780627646,-0.501924235,-0.64613655,0.487898476,-1.11861754
993,0.502725199,-0.727772318,-1.019202043,-0.590804436,0.366734068,-0.998089925
994,0.474405505,-0.551587894,-1.433024289,-0.513339476,0.282851016,-0.889378744
995,0.474405505,-0.51635101,-1.908919873,-0.428496901,0.212948473,-0.82320672
996,0.474405505,-0.269692816,-1.991684322,-0.369475979,0.136055676,-0.794847281
997,0.24784795,-0.146363719,-2.23997767,-0.362098364,0.04518237,-0.804300427
998,0.106249478,0.153149802,-2.177904333,-0.410052863,-0.06200153,-0.830296579
999,-0.148627771,0.452663322,-1.826155424,-0.472762592,-0.162195175,-0.870472451
1000,-0.290226243,0.611229304,-1.681317637,-0.509650668,-0.255398565,-0.896468603
1001,-0.403505021,0.734558401,-1.557170963,-0.557605167,-0.341611702,-0.913011609
1002,-0.601742881,0.910742825,-1.515788739,-0.605559666,-0.441805347,-0.924828042
1003,-0.715021659,0.963598152,-1.495097626,-0.638758934,-0.532678653,-0.924828042
1004,-0.856620131,0.893124382,-1.308877616,-0.686713433,-0.600251111,-0.922464755
1005,-1.054857991,0.699321516,-1.226113166,-0.75311197,-0.642192637,-0.913011609
1006,-1.224776157,0.540755534,-0.977819818,-0.804755277,-0.674813824,-0.89883189
1007,-1.423014018,0.188386686,-0.936437594,-0.823199315,-0.714425265,-0.875199024
1008,-1.338054935,-0.058271507,-0.853673144,-0.815821699,-0.763357045,-0.844476299
1009,-1.451333712,-0.393021913,-0.832982032,-0.775244816,-0.81461891,-0.785394135
1010,-1.479653407,-0.639680106,-0.688144246,-0.679335818,-0.837919758,-0.705042392
1011,-1.338054935,-0.868719858,-0.688144246,-0.502273053,-0.816948995,-0.615237502
1012,-1.139817074,-1.027285839,-0.481233123,-0.21454606,-0.76102696,-0.508889607
1013,-0.771661047,-1.044904282,-0.46054201,0.183845161,-0.681804078,-0.397815139
1014,-0.516783798,-0.95681207,-0.377777561,0.685522996,-0.576950263,-0.291467243
1015,-0.20526716,-0.81586453,-0.377777561,1.190889637,-0.474426534,-0.187482634
1016,0.219528255,-0.569206337,-0.439850898,1.615102512,-0.376562973,-0.097677745
1017,0.587684282,-0.322548143,-0.481233123,1.880696659,-0.315980769,-0.010236142
1018,1.040799392,-0.111126834,-0.667453134,1.939717581,-0.308990515,0.081932034
1019,1.069119086,0.06505759,-0.750217583,1.814298123,-0.346271871,0.176463496
1020,1.522234196,0.206005129,-0.853673144,1.600347281,-0.399863821,0.275721532
1021,1.890390223,0.241242014,-0.81229092,1.29417625,-0.432485008,0.389159287
1022,2.116947778,0.241242014,-0.688144246,1.006449257,-0.432485008,0.488417322
1023,2.286865944,0.241242014,-0.54330646,0.810942454,-0.427824838,0.580585498
1024,2.286865944,0.223623571,-0.377777561,0.729788687,-0.41384433,0.670390388
1025,2.173587167,0.135531359,-0.398468673,0.737166302,-0.388213397,0.750742131
1026,2.116947778,0.117912917,-0.232939775,0.766676763,-0.36491255,0.814550868
1027,2.031988695,0.082676032,-0.295013112,0.803564839,-0.348601956,0.868906459
1028,1.833750834,0.100294474,-0.481233123,0.858896953,-0.320640939,0.925625337
1029,1.550553891,0.135531359,-0.439850898,0.895785029,-0.285689667,0.963437922
1030,1.380635724,0.206005129,-0.439850898,0.892096221,-0.246078226,0.99179736
1031,1.154078169,0.276478898,-0.584688684,0.844141723,-0.211126955,1.00597708
1032,1.040799392,0.311715783,-0.54330646,0.759299148,-0.169185429,1.010703653
1033,0.842561531,0.382189553,-0.54330646,0.674456573,-0.117923564,1.001250507
1034,0.644323671,0.43504488,-0.522615347,0.611746843,-0.05734136,0.984707501
1035,0.361126727,0.540755534,-0.46054201,0.560103537,0.007901013,0.970527781
1036,0.219528255,0.611229304,-0.377777561,0.519526653,0.082463726,0.956348062
1037,-0.0070293,0.734558401,-0.336395336,0.467883347,0.159356523,0.935078483
1038,-0.20526716,0.787413728,-0.212248663,0.427306463,0.236249321,0.920898763
1039,-0.375185326,0.80503217,-0.129484213,0.38672958,0.301491694,0.91617219
1040,-0.573423187,0.752176843,-0.253630887,0.357219119,0.355083644,0.91617219
1041,-0.545103493,0.822650613,0.07742691,0.327708658,0.39702517,0.920898763
1042,-0.573423187,0.857887498,-0.005337539,0.290820582,0.436636611,0.935078483
1043,-0.601742881,0.822650613,0.098118022,0.246554891,0.464597628,0.949258202
1044,-0.488464104,0.80503217,0.160191359,0.205978007,0.487898476,0.965801208
1045,-0.431824715,0.752176843,0.180882472,0.143268278,0.4995489,0.972891068
1046,-0.403505021,0.699321516,0.139500247,0.06211451,0.508869239,0.977617641
1047,-0.318545938,0.628847746,0.305029146,-0.015350449,0.522849747,0.99179736
1048,-0.233586855,0.628847746,0.284338033,-0.092815409,0.539160341,0.996523933
1049,-0.148627771,0.575992419,0.222264696,-0.151836331,0.567121358,0.994160647
1050,-0.035348994,0.558373977,0.242955809,-0.192413214,0.604402714,0.987070787
1051,0.106249478,0.417426438,0.305029146,-0.218234868,0.648674325,0.979980928
1052,0.24784795,0.36457111,0.387793595,-0.240367713,0.69527602,0.965801208
1053,0.24784795,0.36457111,0.242955809,-0.247745328,0.746537885,0.949258202
1054,0.332807033,0.294097341,0.222264696,-0.251434136,0.809450174,0.918535477
1055,0.361126727,0.311715783,0.222264696,-0.236678906,0.872362463,0.873633032
1056,0.304487338,0.329334226,0.180882472,-0.203479637,0.932944667,0.824004014
1057,0.389446422,0.36457111,0.305029146,-0.1370811,0.99818704,0.77201171
1058,0.276167644,0.452663322,0.34641137,-0.066993756,1.061099329,0.727109265
1059,0.304487338,0.399807995,0.305029146,-0.019039257,1.110031109,0.668027101
1060,0.304487338,0.487900207,0.387793595,-0.004284026,1.144982381,0.616034797
1061,0.24784795,0.50551865,0.408484707,-0.000595219,1.170613313,0.559315919
1062,0.191208561,0.628847746,0.491249156,-0.011661642,1.189253991,0.500233755
1063,0.191208561,0.611229304,0.367102482,-0.026416872,1.210224754,0.443514878
1064,0.134569172,0.628847746,0.449866932,-0.03010568,1.221875178,0.382069427
1065,0.162888867,0.664084631,0.491249156,-0.037483295,1.231195517,0.32535055
1066,0.077929783,0.681703074,0.553322493,-0.019039257,1.24750611,0.268631672
1067,-0.120308077,0.752176843,0.636086943,-0.007972834,1.263816704,0.221365941
1068,-0.261906549,0.699321516,0.656778055,-0.019039257,1.277797212,0.181190069
1069,-0.318545938,0.664084631,0.863689178,-0.015350449,1.287117551,0.136287625
1070,-0.460144409,0.575992419,0.822306954,0.03260405,1.291777721,0.096111753
1071,-0.516783798,0.593610862,0.946453627,0.110069009,1.30575823,0.051209308
1072,-0.573423187,0.452663322,0.925762515,0.205978007,1.331389162,0.013396723
1073,-0.630062576,0.575992419,1.153364751,0.316642235,1.364010349,-0.022052575
1074,-0.715021659,0.452663322,1.070600301,0.434684078,1.391971366,-0.036232294
1075,-0.686701964,0.470281765,0.987835852,0.545348307,1.410612044,-0.043322154
1076,-0.771661047,0.575992419,1.153364751,0.633879689,1.405951875,-0.017326002
1077,-0.715021659,0.452663322,0.96714474,0.718722264,1.412942129,0.077205461
1078,-0.686701964,0.523137092,1.029218077,0.729788687,1.464203994,0.01576001
1079,-0.65838227,0.523137092,0.925762515,0.718722264,1.478184502,-0.014962715
1080,-0.573423187,0.50551865,0.925762515,0.670767765,1.478184502,-0.003146283
1081,-0.431824715,0.487900207,0.88438029,0.596991613,1.475854418,0.006306864
1082,-0.460144409,0.399807995,0.718851392,0.493705,1.459543824,0.020486583
1083,-0.290226243,0.417426438,0.636086943,0.346152696,1.429252722,0.034666302
1084,-0.176947466,0.276478898,0.61539583,0.183845161,1.387311197,0.044119449
1085,-0.148627771,0.06505759,0.511940269,0.017848819,1.343039586,0.155193917
1086,-0.091988383,-0.146363719,0.656778055,-0.148147523,1.333719247,0.136287625
1087,-0.148627771,-0.287311258,0.863689178,-0.266189366,1.315078569,0.041756162
1088,-0.488464104,-0.393021913,0.718851392,-0.32152148,1.275467128,-0.019689288
1089,-0.715021659,-0.710153876,0.656778055,-0.380542402,1.235855687,-0.036232294
1090,-1.054857991,-0.903956742,0.61539583,-0.439563324,1.170613313,-0.057501873
1091,-1.451333712,-0.992048954,0.532631381,-0.513339476,1.065759498,-0.097677745
1092,-1.734530656,-0.974430512,0.553322493,-0.564982782,0.94459509,-0.123673897
1093,-1.847809433,-0.992048954,0.491249156,-0.590804436,0.842071361,-0.123673897
1094,-1.847809433,-0.921575185,0.677469167,-0.576049205,0.781489157,-0.097677745
1095,-1.847809433,-0.851101415,0.925762515,-0.494895438,0.74886797,-0.05986516
1096,-1.932768516,-0.674916991,1.380966986,-0.325210288,0.739547631,-0.010236142
1097,-1.847809433,-0.569206337,1.753407008,-0.085437794,0.713916698,0.046482735
1098,-1.819489739,-0.37540347,1.898244794,0.180156354,0.669645088,0.112654759
1099,-1.791170045,-0.093508392,2.022391468,0.412551233,0.611392969,0.176463496
1100,-1.536292795,0.029820705,2.022391468,0.574858767,0.54382051,0.23554566
1101,-1.507973101,0.135531359,1.918935907,0.626502074,0.476248052,0.287537965
1102,-1.621251878,0.276478898,1.77409812,0.560103537,0.404015424,0.358436562
1103,-1.479653407,-0.00541618,1.298202537,0.371974349,0.352753559,0.526229907
1104,-1.56461249,-0.234455931,1.029218077,0.04735928,0.355083644,0.535683054
1105,-1.989407905,-0.622061664,0.574013606,-0.362098364,0.322462457,0.556952633
1106,-2.21596546,-1.097759609,0.222264696,-0.778933623,0.287511186,0.649120809
1107,-2.074366988,-1.450128457,-0.377777561,-1.181013652,0.229259066,0.746015558
1108,-1.819489739,-1.696786651,-0.626070909,-1.513006337,0.108094659,0.833457161
1109,-1.338054935,-1.996300171,-0.915746481,-1.719579563,-0.066661699,0.944531629
1110,-0.601742881,-2.20772148,-0.853673144,-1.767534061,-0.246078226,1.102871829
1111,0.049610089,-2.260576807,-0.522615347,-1.64580341,-0.36491255,1.273028461
1112,0.276167644,-2.102010826,-0.108793101,-1.365454033,-0.411514245,1.419552228
1113,0.134569172,-1.784878863,0.429175819,-1.029772541,-0.453455771,1.549532989
1114,0.077929783,-1.414891572,0.718851392,-0.708846279,-0.532678653,1.653517598
1115,0.304487338,-1.044904282,0.863689178,-0.505961861,-0.600251111,1.726779481
1116,0.417766116,-0.798246088,0.636086943,-0.432185709,-0.590930772,1.776408499
1117,0.672643365,-0.780627646,0.739542504,-0.424808093,-0.50704772,1.759865493
1118,0.616003976,-0.780627646,0.574013606,-0.428496901,-0.388213397,1.67951375
1119,0.361126727,-0.763009203,0.34641137,-0.391608825,-0.25772865,1.570802568
1120,0.162888867,-0.780627646,0.015353573,-0.273566982,-0.152874836,1.4597281
1121,-0.0070293,-0.745390761,-0.377777561,-0.103881832,-0.082972293,1.367559924
1122,-0.063668688,-0.745390761,-0.874364257,0.054736895,-0.031710428,1.280118321
1123,-0.148627771,-0.639680106,-1.433024289,0.128513047,0.024211607,1.206856438
1124,-0.120308077,-0.533969452,-1.660626525,0.13957947,0.108094659,1.131231268
1125,-0.148627771,-0.340166586,-1.88822876,0.091624971,0.222268812,1.057969384
1126,-0.403505021,-0.00541618,-2.053757659,0.017848819,0.352753559,0.99179736
1127,-0.290226243,0.346952668,-2.012375434,-0.100193024,0.497218815,0.937441769
1128,-0.120308077,0.628847746,-1.950302097,-0.262500559,0.634693816,0.887812752
1129,0.021290395,0.857887498,-1.826155424,-0.432185709,0.758188309,0.84763688
1130,0.077929783,1.051690364,-1.660626525,-0.598182051,0.870032378,0.814550868
1131,0.219528255,1.069308806,-1.515788739,-0.745734355,0.970226023,0.783828143
1132,0.304487338,1.034071922,-1.267495391,-0.856398583,1.044788736,0.760195277
1133,0.44608581,0.963598152,-1.060584268,-0.933863543,1.082070092,0.722382692
1134,0.474405505,0.716939958,-0.895055369,-0.963374004,1.093720516,0.675116961
1135,0.474405505,0.399807995,-0.626070909,-0.952307581,1.093720516,0.611308224
1136,0.502725199,0.117912917,-0.46054201,-0.889597852,1.093720516,0.542772913
1137,0.361126727,-0.322548143,-0.357086449,-0.786311239,1.079740007,0.464784457
1138,0.361126727,-0.622061664,-0.398468673,-0.649825357,1.030808227,0.386796
1139,0.44608581,-1.044904282,-0.336395336,-0.439563324,0.942265006,0.299354397
1140,0.44608581,-1.221088706,-0.315704224,-0.166591561,0.828090852,0.190643216
1141,0.616003976,-1.32679936,-0.398468673,0.191222777,0.723237037,0.09138518
1142,0.70096306,-1.309180918,-0.439850898,0.622813266,0.64634424,-0.003146283
1143,0.502725199,-1.150614936,-0.481233123,1.102358255,0.590422206,-0.090587885
1144,0.191208561,-1.044904282,-0.501924235,1.585592051,0.536830256,-0.161486482
1145,0.021290395,-0.745390761,-0.46054201,2.006116118,0.462267543,-0.213478787
1146,-0.346865632,-0.410640355,-0.667453134,2.293843111,0.383044661,-0.272560951
1147,-0.601742881,-0.146363719,-0.688144246,2.345486418,0.313142118,-0.331643115
1148,-0.715021659,0.100294474,-0.646762021,2.220066959,0.24556966,-0.393088565
1149,-0.799980742,0.258860456,-0.626070909,1.998738503,0.189647625,-0.471077022
1150,-0.969898908,0.311715783,-0.605379797,1.71101151,0.1477061,-0.551428765
1151,-1.083177686,0.43504488,-0.563997572,1.364263595,0.124405252,-0.638870368
1152,-1.224776157,0.558373977,-0.501924235,1.054403756,0.110424743,-0.721585398
1153,-1.253095852,0.470281765,-0.501924235,0.8330753,0.105764574,-0.797210568
1154,-1.30973524,0.50551865,-0.501924235,0.670767765,0.108094659,-0.865745878
1155,-1.338054935,0.36457111,-0.563997572,0.57116996,0.131395506,-0.910648323
1156,-1.30973524,0.382189553,-0.54330646,0.501082615,0.154696354,-0.934281188
1157,-1.253095852,0.294097341,-0.729526471,0.464194539,0.171006947,-0.946097621
1158,-1.224776157,0.329334226,-0.667453134,0.456816924,0.180327286,-0.943734334
1159,-1.139817074,0.417426438,-0.54330646,0.467883347,0.173337032,-0.936644475
1160,-0.913259519,0.399807995,-0.688144246,0.471572155,0.161686608,-0.910648323
1161,-0.771661047,0.470281765,-0.688144246,0.456816924,0.124405252,-0.879925597
1162,-0.65838227,0.523137092,-0.626070909,0.412551233,0.073143387,-0.842113012
1163,-0.545103493,0.593610862,-0.626070909,0.371974349,0.012561183,-0.806663714
1164,-0.375185326,0.628847746,-0.481233123,0.346152696,-0.048021021,-0.768851129
1165,-0.318545938,0.699321516,-0.501924235,0.360907926,-0.103943055,-0.74049169
1166,-0.091988383,0.752176843,-0.357086449,0.38672958,-0.169185429,-0.721585398
1167,0.021290395,0.822650613,-0.46054201,0.405173618,-0.225107463,-0.707405678
1168,0.134569172,0.928361267,-0.439850898,0.394107195,-0.285689667,-0.702679105
1169,0.276167644,0.893124382,-0.439850898,0.346152696,-0.341611702,-0.695589245
1170,0.191208561,0.998835037,-0.357086449,0.272376544,-0.388213397,-0.702679105
1171,0.361126727,0.998835037,-0.357086449,0.183845161,-0.425494753,-0.705042392
1172,0.389446422,0.910742825,-0.295013112,0.073180933,-0.451125686,-0.702679105
1173,0.44608581,0.94597971,-0.295013112,-0.048549718,-0.467436279,-0.705042392
1174,0.389446422,0.910742825,-0.253630887,-0.170280369,-0.481416788,-0.707405678
1175,0.417766116,0.80503217,-0.253630887,-0.280944597,-0.483746873,-0.702679105
1176,0.304487338,0.699321516,-0.150175326,-0.373164787,-0.483746873,-0.697952532
1177,0.276167644,0.575992419,-0.150175326,-0.446940939,-0.483746873,-0.690862672
1178,0.191208561,0.50551865,-0.170866438,-0.487517823,-0.486076957,-0.690862672
1179,0.191208561,0.294097341,-0.026028652,-0.498584245,-0.497727381,-0.688499386
1180,0.219528255,0.276478898,0.098118022,-0.472762592,-0.514037975,-0.676682953
1181,0.106249478,0.223623571,-0.19155755,-0.413741671,-0.544329077,-0.662503234
1182,0.162888867,0.100294474,0.015353573,-0.314143865,-0.581610433,-0.641233654
1183,0.049610089,0.100294474,0.180882472,-0.207168445,-0.621221874,-0.615237502
1184,0.162888867,0.082676032,0.201573584,-0.085437794,-0.660833315,-0.586878064
1185,0.021290395,0.117912917,0.180882472,0.043670472,-0.693454502,-0.556155338
1186,0.021290395,0.082676032,0.325720258,0.161712316,-0.723745604,-0.518342753
1187,0.049610089,0.082676032,0.305029146,0.287131774,-0.763357045,-0.482893455
1188,-0.063668688,0.082676032,0.325720258,0.405173618,-0.798308316,-0.442717583
1189,-0.035348994,0.082676032,0.387793595,0.490016193,-0.830929503,-0.390725279
1190,-0.20526716,0.153149802,0.449866932,0.589613998,-0.86355069,-0.336369688
1191,-0.176947466,0.206005129,0.532631381,0.689211803,-0.891511707,-0.277287524
1192,-0.261906549,0.188386686,0.511940269,0.777743186,-0.903162131,-0.206388927
1193,-0.120308077,0.241242014,0.656778055,0.858896953,-0.924132894,-0.130763757
1194,-0.063668688,0.258860456,0.69816028,0.94005072,-0.945103657,-0.055138587
1195,-0.063668688,0.311715783,0.801615841,1.00276045,-0.96607442,0.02284987
1196,-0.091988383,0.346952668,0.718851392,1.047026141,-0.984715098,0.089021893
1197,-0.176947466,0.346952668,0.760233617,1.061781371,-1.01966637,0.15992049
1198,-0.261906549,0.417426438,0.842998066,1.065470179,-1.066268065,0.23554566
1199,-0.20526716,0.382189553,0.96714474,1.047026141,-1.119860015,0.306444257
1200,-0.346865632,0.36457111,0.96714474,1.006449257,-1.173451964,0.377342854
1201,-0.403505021,0.540755534,1.049909189,0.999071642,-1.224713829,0.443514878
1202,-0.65838227,0.523137092,1.029218077,1.047026141,-1.259665101,0.497870469
1203,-0.573423187,0.540755534,1.029218077,1.058092564,-1.301606627,0.559315919
1204,-0.856620131,0.593610862,1.153364751,1.028582103,-1.350538407,0.618398083
1205,-0.771661047,0.558373977,1.215438088,0.980627604,-1.404130356,0.668027101
1206,-0.856620131,0.487900207,1.215438088,0.914229067,-1.460052391,0.705839686
1207,-0.828300436,0.470281765,1.339584762,0.858896953,-1.525294764,0.722382692
1208,-0.884939825,0.417426438,1.380966986,0.836764107,-1.588207053,0.741288985
1209,-0.998218602,0.36457111,1.484422548,0.844141723,-1.648789257,0.750742131
1210,-1.026538297,0.399807995,1.463731435,0.866274568,-1.709371461,0.746015558
1211,-0.828300436,0.382189553,1.587878109,0.873652183,-1.751312987,0.738925698
1212,-0.715021659,0.346952668,1.360275874,0.844141723,-1.779274004,0.722382692
1213,-0.573423187,0.294097341,1.132673638,0.788809609,-1.774613835,0.708202973
1214,-0.346865632,0.170768244,0.677469167,0.66339015,-1.709371461,0.684570107
1215,0.219528255,0.223623571,0.387793595,0.464194539,-1.590537138,0.62076137
1216,0.672643365,0.276478898,-0.005337539,0.172778739,-1.474032899,0.497870469
1217,1.012479698,0.241242014,-0.315704224,-0.210857252,-1.369179085,0.405702293
1218,1.154078169,0.170768244,-0.232939775,-0.635070127,-1.261995185,0.31117083
1219,1.323996336,-0.040653065,-0.026028652,-1.018706118,-1.16646171,0.202459648
1220,1.323996336,-0.199219046,0.284338033,-1.26216742,-1.096559167,0.103201613
1221,1.210717558,-0.304929701,0.61539583,-1.339632379,-1.059277811,0.027576443
1222,1.239037252,-0.428258798,0.925762515,-1.284300265,-1.026656624,-0.029142435
1223,1.35231603,-0.51635101,1.091291414,-1.158880807,-0.977724844,-0.081134739
1224,1.522234196,-0.551587894,1.256820312,-1.026083733,-0.893841792,-0.137853617
1225,1.267356947,-0.498732567,1.380966986,-0.900664274,-0.781997723,-0.206388927
1226,1.239037252,-0.393021913,1.360275874,-0.793688854,-0.667823569,-0.274924237
1227,1.125758475,-0.269692816,1.422349211,-0.683024626,-0.56063967,-0.336369688
1228,0.984160003,-0.181600604,1.360275874,-0.58342682,-0.474426534,-0.395451852
1229,0.729282754,-0.058271507,1.360275874,-0.494895438,-0.418504499,-0.459260589
1230,0.785922143,-0.040653065,1.277511425,-0.446940939,-0.357922295,-0.58215149
1231,0.332807033,0.082676032,1.339584762,-0.4764514,-0.346271871,-0.726311971
1232,0.616003976,-0.040653065,1.298202537,-0.576049205,-0.378893058,-0.634143795
1233,0.729282754,-0.304929701,1.091291414,-0.727290317,-0.362582465,-0.558518625
1234,0.927520614,-0.44587724,0.946453627,-0.93755235,-0.302000261,-0.612874216
1235,0.870881226,-0.745390761,1.008526964,-1.144125576,-0.25772865,-0.679046239
1236,0.984160003,-1.009667397,0.801615841,-1.29167788,-0.215787124,-0.712132251
1237,0.870881226,-1.221088706,0.656778055,-1.383898071,-0.148214666,-0.764124556
1238,0.587684282,-1.379654687,0.61539583,-1.413408531,-0.068991784,-0.887015457
1239,-0.0070293,-1.467746899,0.760233617,-1.387586878,0.005570929,-1.04299237
1240,-0.346865632,-1.450128457,0.88438029,-1.35438761,0.082463726,-1.182426277
1241,-0.375185326,-1.450128457,1.049909189,-1.358076417,0.124405252,-1.293500746
1242,-0.176947466,-1.32679936,1.008526964,-1.372831648,0.152366269,-1.404575214
1243,-0.091988383,-1.132996494,1.008526964,-1.380209263,0.212948473,-1.513286396
1244,-0.063668688,-0.974430512,0.718851392,-1.358076417,0.29916161,-1.612544432
1245,0.276167644,-0.903956742,0.636086943,-1.335943572,0.408675594,-1.735435333
1246,-0.120308077,-0.639680106,0.491249156,-1.332254764,0.487898476,-1.900865392
1247,0.049610089,-0.639680106,0.284338033,-1.35438761,0.525179832,-1.839419942
1248,0.106249478,-0.551587894,0.325720258,-1.35438761,0.576441697,-1.792154211
1249,0.021290395,-0.481114125,0.305029146,-1.361765225,0.588092121,-1.787427637
1250,0.162888867,-0.586824779,0.325720258,-1.36914284,0.557801019,-1.777974491
1251,0.24784795,-0.498732567,0.305029146,-1.376520455,0.501878984,-1.818150363
1252,0.672643365,-0.569206337,0.242955809,-1.36914284,0.422656102,-1.733072046
1253,0.984160003,-0.604443222,-0.005337539,-1.324877149,0.387704831,-1.607817859
1254,1.182397864,-0.622061664,-0.274321999,-1.247412189,0.390034916,-1.520376256
1255,1.323996336,-0.51635101,-0.584688684,-1.144125576,0.399355255,-1.482563671
1256,1.182397864,-0.357785028,-0.915746481,-1.011328503,0.378384492,-1.458930805
1257,1.040799392,-0.111126834,-1.143348717,-0.900664274,0.306151864,-1.378579062
1258,1.182397864,0.082676032,-1.433024289,-0.841643353,0.187317541,-1.26986788
1259,1.154078169,0.329334226,-1.557170963,-0.826888122,0.038192115,-1.172973131
1260,1.295676641,0.50551865,-1.6192443,-0.834265737,-0.122583734,-1.094984675
1261,1.239037252,0.752176843,-1.70200875,-0.856398583,-0.236757887,-1.033539224
1262,1.154078169,0.822650613,-1.598553188,-0.893286659,-0.295010006,-0.97445706
1263,1.125758475,0.928361267,-1.515788739,-0.926485928,-0.3113206,-0.920101469
1264,0.955840309,0.963598152,-1.391642065,-0.948618773,-0.304330346,-0.868109164
1265,0.814241837,0.893124382,-1.267495391,-0.974440426,-0.299670176,-0.81611686
1266,0.587684282,0.80503217,-1.288186503,-0.992884464,-0.302000261,-0.764124556
1267,0.361126727,0.646466189,-1.164039829,-0.992884464,-0.318310854,-0.712132251
1268,0.304487338,0.417426438,-1.039893155,-0.981818042,-0.341611702,-0.66486652
1269,0.077929783,0.241242014,-1.060584268,-0.970751619,-0.371902804,-0.624690649
1270,-0.261906549,0.047439147,-1.019202043,-0.930174735,-0.404523991,-0.591604637
1271,-0.601742881,-0.269692816,-0.791599807,-0.867465006,-0.430154923,-0.558518625
1272,-0.686701964,-0.51635101,-0.667453134,-0.745734355,-0.448795601,-0.518342753
1273,-0.969898908,-0.692535434,-0.626070909,-0.572360398,-0.45811594,-0.466350449
1274,-1.026538297,-0.95681207,-0.54330646,-0.328899096,-0.444135432,-0.397815139
1275,-0.998218602,-0.992048954,-0.46054201,-0.022728064,-0.390543482,-0.319826682
1276,-1.083177686,-1.044904282,-0.481233123,0.335086273,-0.299670176,-0.232385079
1277,-0.715021659,-1.044904282,-0.315704224,0.692900611,-0.178505768,-0.14258019
1278,-0.545103493,-0.851101415,-0.357086449,1.09498064,-0.066661699,-0.064591733
1279,-0.403505021,-0.639680106,-0.522615347,1.445417362,0.019551437,0.00867015
1280,-0.035348994,-0.410640355,-0.708835358,1.644612973,0.052172624,0.072478887
1281,0.332807033,-0.163982162,-0.81229092,1.703633894,0.0405222,0.136287625
1282,0.616003976,0.117912917,-0.791599807,1.61879132,0.024211607,0.188279929
1283,0.927520614,0.223623571,-0.770908695,1.44910617,0.012561183,0.240272233
1284,1.210717558,0.399807995,-0.770908695,1.216711291,0.010231098,0.301717684
1285,1.380635724,0.487900207,-0.688144246,0.965872374,0.021881522,0.356073275
1286,1.607193279,0.523137092,-0.584688684,0.722411072,0.04518237,0.405702293
1287,1.635512974,0.628847746,-0.46054201,0.534281884,0.063823048,0.445878164
1288,1.663832668,0.593610862,-0.439850898,0.38672958,0.066153133,0.486054036
1289,1.862070529,0.558373977,-0.398468673,0.264998929,0.052172624,0.523866621
1290,1.748791751,0.294097341,-0.46054201,0.187533969,0.047512455,0.554589346
1291,1.720472057,0.223623571,-0.46054201,0.135890662,0.049842539,0.580585498
1292,1.522234196,0.135531359,-0.481233123,0.154334701,0.049842539,0.606581651
1293,1.408955419,0.153149802,-0.46054201,0.21704443,0.056832794,0.62785123
1294,1.239037252,0.135531359,-0.439850898,0.290820582,0.077803557,0.651484095
1295,1.069119086,0.135531359,-0.481233123,0.383040772,0.105764574,0.668027101
1296,0.870881226,0.170768244,-0.522615347,0.453128116,0.136055676,0.694023253
1297,0.729282754,0.206005129,-0.584688684,0.501082615,0.166346778,0.708202973
1298,0.587684282,0.311715783,-0.54330646,0.526904269,0.208288304,0.717656119
1299,0.389446422,0.36457111,-0.54330646,0.534281884,0.266540423,0.724745979
1300,0.389446422,0.558373977,-0.501924235,0.515837846,0.329452712,0.729472552
1301,0.106249478,0.611229304,-0.46054201,0.482638577,0.394695085,0.729472552
1302,-0.063668688,0.699321516,-0.398468673,0.408862425,0.452947204,0.738925698
1303,-0.063668688,0.681703074,-0.315704224,0.316642235,0.4995489,0.743652271
1304,-0.290226243,0.769795286,-0.170866438,0.213355622,0.532170086,0.741288985
1305,-0.346865632,0.664084631,-0.150175326,0.091624971,0.555470934,0.760195277
1306,-0.346865632,0.628847746,-0.067410876,-0.03010568,0.583431951,0.809824295
1307,-0.233586855,0.628847746,0.015353573,-0.133392293,0.611392969,0.845273593
1308,-0.176947466,0.540755534,0.139500247,-0.19979083,0.630033647,0.857090026
1309,-0.233586855,0.523137092,0.07742691,-0.240367713,0.657994664,0.878359605
1310,-0.120308077,0.43504488,0.118809135,-0.266189366,0.697606105,0.873633032
1311,-0.035348994,0.311715783,-0.005337539,-0.288322212,0.718576868,0.85472674
1312,0.021290395,0.346952668,0.160191359,-0.30676625,0.753528139,0.84763688
1313,0.077929783,0.43504488,0.139500247,-0.310455058,0.80245992,0.845273593
1314,0.24784795,0.329334226,0.07742691,-0.284633404,0.867702293,0.84054702
1315,0.276167644,0.258860456,0.07742691,-0.310455058,0.937604836,0.826367301
1316,0.361126727,0.311715783,0.118809135,-0.347343134,1.012167549,0.812187582
1317,0.44608581,0.258860456,0.098118022,-0.369475979,1.082070092,0.819277441
1318,0.304487338,0.206005129,0.201573584,-0.38423121,1.158962889,0.77201171
1319,0.304487338,0.188386686,0.118809135,-0.387920017,1.219545093,0.717656119
1320,0.332807033,0.294097341,0.139500247,-0.358409557,1.275467128,0.677480248
1321,0.389446422,0.188386686,0.07742691,-0.339965518,1.329059077,0.649120809
1322,0.219528255,0.346952668,0.305029146,-0.299388635,1.387311197,0.61367151
1323,0.417766116,0.311715783,0.222264696,-0.240367713,1.433912892,0.571132352
1324,0.389446422,0.36457111,0.263646921,-0.236678906,1.480514587,0.523866621
1325,0.077929783,0.50551865,0.160191359,-0.225612483,1.522456113,0.483690749
1326,0.021290395,0.487900207,0.305029146,-0.225612483,1.5550773,0.478964176
1327,-0.035348994,0.575992419,0.325720258,-0.22930129,1.569057808,0.481327463
1328,0.049610089,0.43504488,0.429175819,-0.255122944,1.571387893,0.504960328
1329,-0.035348994,0.417426438,0.594704718,-0.262500559,1.597018826,0.438788305
1330,-0.091988383,0.470281765,0.636086943,-0.236678906,1.59934891,0.379706141
1331,0.021290395,0.558373977,0.842998066,-0.181346791,1.597018826,0.330077123
1332,-0.261906549,0.575992419,0.69816028,-0.092815409,1.60400908,0.280448105
1333,-0.375185326,0.558373977,0.718851392,-0.019039257,1.624979843,0.240272233
1334,-0.318545938,0.50551865,0.842998066,0.014160012,1.643620521,0.204822935
1335,-0.346865632,0.470281765,0.88438029,0.03260405,1.659931114,0.164647063
1336,-0.261906549,0.346952668,0.88438029,0.039981665,1.687892132,0.122107905
1337,-0.148627771,0.311715783,0.88438029,0.043670472,1.727503573,0.074842174
1338,-0.20526716,0.329334226,0.905071403,0.043670472,1.778765438,0.025213156
1339,-0.148627771,0.43504488,0.88438029,0.069492126,1.834687472,-0.019689288
1340,-0.261906549,0.258860456,0.863689178,0.106380202,1.864978574,0.025213156
1341,-0.091988383,0.276478898,0.987835852,0.154334701,1.911580269,-0.014962715
1342,-0.20526716,0.311715783,1.029218077,0.191222777,1.916240439,-0.088224599
1343,-0.20526716,0.223623571,1.049909189,0.23179966,1.904590015,-0.114220751
1344,-0.120308077,0.241242014,1.070600301,0.268687736,1.90225993,-0.123673897
1345,-0.120308077,0.258860456,1.153364751,0.294509389,1.892939591,-0.130763757
1346,-0.261906549,0.258860456,1.174055863,0.290820582,1.869638744,-0.13549033
1347,-0.488464104,0.206005129,1.111982526,0.257621313,1.825367133,-0.130763757
1348,-0.601742881,0.135531359,1.153364751,0.194911584,1.753134505,-0.126037184
1349,-0.771661047,0.100294474,1.132673638,0.113757817,1.685562047,-0.126037184
1350,-0.743341353,0.012202262,1.049909189,0.017848819,1.590028571,-0.118947324
1351,-0.969898908,-0.093508392,1.111982526,-0.052238525,1.496825181,-0.118947324
1352,-1.196456463,-0.040653065,1.2361292,-0.103881832,1.405951875,-0.104767605
1353,-1.423014018,-0.304929701,1.132673638,-0.144458715,1.280127297,-0.040958868
1354,-1.734530656,-0.393021913,1.111982526,-0.166591561,1.165953143,-0.076408166
1355,-1.989407905,-0.428258798,0.905071403,-0.19979083,1.007507379,-0.097677745
1356,-2.102686683,-0.37540347,0.760233617,-0.22930129,0.832751022,-0.064591733
1357,-2.159326071,-0.322548143,0.594704718,-0.269878174,0.676635342,-0.024415862
1358,-2.131006377,-0.269692816,0.718851392,-0.325210288,0.564791273,0.027576443
1359,-1.989407905,-0.340166586,0.801615841,-0.351031941,0.478578137,0.081932034
1360,-2.074366988,-0.322548143,1.008526964,-0.310455058,0.413335763,0.145740771
1361,-1.904448822,-0.322548143,1.277511425,-0.177657984,0.357413729,0.214276081
1362,-1.76285035,-0.287311258,1.587878109,0.03260405,0.296831525,0.280448105
1363,-1.677891267,-0.181600604,1.712024783,0.261310121,0.224598897,0.358436562
1364,-1.30973524,-0.340166586,1.587878109,0.430995271,0.133725591,0.549862773
1365,-1.11149738,-0.481114125,1.670642559,0.490016193,0.091784065,0.604218364
1366,-1.083177686,-0.780627646,1.194746975,0.390418387,0.042852285,0.580585498
1367,-1.366374629,-1.115378051,0.88438029,0.146957085,-0.001419326,0.62076137
1368,-1.706210962,-1.39727313,0.180882472,-0.19979083,-0.022390089,0.705839686
1369,-1.847809433,-1.714405093,-0.667453134,-0.64613655,-0.075982038,0.786191429
1370,-1.621251878,-2.084392383,-1.329568728,-1.177324845,-0.236757887,0.859453313
1371,-0.969898908,-2.471998116,-1.598553188,-1.70851314,-0.518698144,0.984707501
1372,-0.035348994,-2.841985407,-1.660626525,-2.018372979,-0.812288825,1.154864133
1373,0.616003976,-2.753893195,-1.039893155,-1.959352057,-0.984715098,1.336837198
1374,0.814241837,-2.489616559,-0.253630887,-1.557272028,-1.003355776,1.478634392
1375,0.559364588,-2.031537056,0.491249156,-0.944929966,-0.994035437,1.570802568
1376,0.502725199,-1.362036245,0.594704718,-0.343654326,-1.042967217,1.646427738
1377,0.757602448,-0.992048954,0.739542504,0.06211451,-1.06393798,1.696056756
1378,1.097438781,-0.727772318,0.760233617,0.239177275,-0.980054928,1.700783329
1379,1.069119086,-0.463495682,0.553322493,0.279754159,-0.81461891,1.618068299
1380,0.729282754,-0.410640355,0.242955809,0.276065351,-0.618891789,1.471544533
1381,0.134569172,-0.304929701,-0.150175326,0.32401985,-0.448795601,1.310841046
1382,-0.318545938,-0.163982162,-0.81229092,0.412551233,-0.346271871,1.15722742
1383,-0.545103493,-0.023034622,-1.474406514,0.512149038,-0.315980769,1.027246659
1384,-0.65838227,0.135531359,-2.177904333,0.541659499,-0.302000261,0.935078483
1385,-0.601742881,0.36457111,-2.612417692,0.456816924,-0.234427802,0.866543173
1386,-0.686701964,0.540755534,-2.840019927,0.264998929,-0.113263394,0.824004014
1387,-0.601742881,0.664084631,-2.674491029,0.025226434,0.04518237,0.809824295
1388,-0.516783798,0.716939958,-2.281359895,-0.251434136,0.219938727,0.807461008
1389,-0.431824715,0.893124382,-1.908919873,-0.531783514,0.371394237,0.805097722
1390,-0.290226243,0.94597971,-1.660626525,-0.782622431,0.476248052,0.802734435
1391,-0.091988383,0.840269055,-1.226113166,-0.963374004,0.522849747,0.788554716
1392,0.106249478,0.716939958,-1.08127538,-1.070349424,0.515859493,0.77201171
1393,0.106249478,0.558373977,-0.915746481,-1.099859885,0.480908222,0.736562412
1394,0.134569172,0.346952668,-0.729526471,-1.077727039,0.431976441,0.684570107
1395,0.304487338,0.047439147,-0.46054201,-1.048216579,0.390034916,0.637304376
1396,0.219528255,-0.181600604,-0.439850898,-0.967062811,0.369064153,0.582948785
1397,0.021290395,-0.586824779,-0.398468673,-0.837954545,0.369064153,0.519140048
1398,-0.120308077,-0.903956742,-0.170866438,-0.66089178,0.366734068,0.464784457
1399,0.049610089,-1.203470263,-0.026028652,-0.406364055,0.341103135,0.40097572
1400,0.077929783,-1.450128457,0.015353573,-0.055927333,0.273530677,0.337166982
1401,0.219528255,-1.502983784,-0.005337539,0.394107195,0.182657371,0.266268386
1402,0.332807033,-1.414891572,-0.212248663,0.914229067,0.105764574,0.202459648
1403,0.134569172,-1.203470263,-0.274321999,1.441728555,0.052172624,0.141014198
1404,0.077929783,-1.009667397,-0.232939775,1.939717581,0.019551437,0.096111753
1405,-0.233586855,-0.763009203,-0.336395336,2.378685686,-0.027050258,0.046482735
1406,-0.431824715,-0.340166586,-0.522615347,2.622146988,-0.080642208,-0.003146283
1407,-0.686701964,0.029820705,-0.605379797,2.636902218,-0.138894327,-0.057501873
1408,-0.771661047,0.311715783,-0.853673144,2.41926257,-0.211126955,-0.116584038
1409,-0.771661047,0.575992419,-0.584688684,1.976605657,-0.278699413,-0.182756061
1410,-0.715021659,0.80503217,-0.439850898,1.474927823,-0.322971024,-0.282014097
1411,-0.828300436,0.840269055,-0.419159786,0.995382834,-0.336951532,-0.388361992
1412,-1.083177686,0.611229304,-0.439850898,0.501082615,-0.320640939,-0.485256741
1413,-1.083177686,0.681703074,-0.046719764,0.080558548,-0.30666043,-0.584514777
1414,-1.338054935,0.558373977,-0.19155755,-0.041172103,-0.290349837,-0.66486652
1415,-1.224776157,0.43504488,-0.253630887,0.003093589,-0.260058735,-0.712132251
1416,-1.139817074,0.36457111,-0.46054201,0.143268278,-0.206466785,-0.728675257
1417,-1.11149738,0.188386686,-0.522615347,0.250243698,-0.162195175,-0.731038544
1418,-1.083177686,0.223623571,-0.895055369,0.320331043,-0.120253649,-0.726311971
1419,-1.083177686,0.206005129,-1.122657605,0.360907926,-0.080642208,-0.726311971
1420,-0.884939825,0.276478898,-0.936437594,0.390418387,-0.059671445,-0.709768965
1421,-0.630062576,0.294097341,-0.853673144,0.390418387,-0.071321869,-0.695589245
1422,-0.545103493,0.399807995,-0.791599807,0.379351964,-0.103943055,-0.679046239
1423,-0.516783798,0.50551865,-0.708835358,0.390418387,-0.148214666,-0.660139947
1424,-0.318545938,0.611229304,-0.626070909,0.438372886,-0.211126955,-0.636507081
1425,-0.20526716,0.664084631,-0.563997572,0.475260962,-0.276369328,-0.617600789
1426,0.021290395,0.734558401,-0.46054201,0.501082615,-0.350932041,-0.608147643
1427,0.106249478,0.857887498,-0.439850898,0.497393808,-0.423164669,-0.601057783
1428,0.191208561,0.893124382,-0.398468673,0.460505732,-0.493067212,-0.601057783
1429,0.162888867,0.94597971,-0.377777561,0.379351964,-0.553649416,-0.598694496
1430,0.162888867,0.963598152,-0.336395336,0.261310121,-0.607241365,-0.598694496
1431,0.191208561,0.94597971,-0.377777561,0.110069009,-0.651512976,-0.603421069
1432,0.191208561,0.857887498,-0.19155755,-0.037483295,-0.691124417,-0.605784356
1433,0.24784795,0.787413728,-0.212248663,-0.159213946,-0.719085434,-0.610510929
1434,0.191208561,0.646466189,-0.108793101,-0.284633404,-0.726075689,-0.608147643
1435,0.049610089,0.540755534,-0.046719764,-0.373164787,-0.719085434,-0.610510929
1436,0.021290395,0.487900207,-0.026028652,-0.413741671,-0.702774841,-0.608147643
1437,-0.063668688,0.329334226,0.098118022,-0.402675248,-0.698114671,-0.605784356
1438,-0.091988383,0.258860456,0.118809135,-0.351031941,-0.700444756,-0.59633121
1439,-0.148627771,0.117912917,0.098118022,-0.303077442,-0.71675535,-0.579788204
1440,-0.346865632,0.06505759,0.160191359,-0.240367713,-0.756366791,-0.570335058
1441,-0.20526716,0.082676032,0.139500247,-0.192413214,-0.821609164,-0.567971771
1442,-0.120308077,0.135531359,0.118809135,-0.133392293,-0.903162131,-0.570335058
1443,-0.148627771,0.135531359,0.098118022,-0.081748986,-0.973064674,-0.560881911
1444,-0.120308077,0.170768244,0.201573584,-0.04486091,-1.033646878,-0.541975619
1445,-0.120308077,0.223623571,0.07742691,-0.022728064,-1.084908743,-0.523069326
1446,-0.261906549,0.329334226,0.160191359,-0.000595219,-1.126850269,-0.492346601
1447,-0.403505021,0.329334226,0.222264696,0.017848819,-1.16180154,-0.459260589
1448,-0.290226243,0.382189553,0.222264696,0.058425703,-1.189762558,-0.416721431
1449,-0.318545938,0.43504488,0.201573584,0.102691394,-1.210733321,-0.364729127
1450,-0.403505021,0.470281765,0.408484707,0.143268278,-1.227043914,-0.312736822
1451,-0.545103493,0.540755534,0.449866932,0.176467546,-1.250344762,-0.251291372
1452,-0.545103493,0.575992419,0.491249156,0.205978007,-1.275975694,-0.189845921
1453,-0.516783798,0.523137092,0.553322493,0.23179966,-1.306266796,-0.114220751
1454,-0.545103493,0.558373977,0.511940269,0.239177275,-1.341218068,-0.045685441
1455,-0.516783798,0.558373977,0.594704718,0.21704443,-1.369179085,0.025213156
1456,-0.601742881,0.593610862,0.656778055,0.183845161,-1.397140102,0.103201613
1457,-0.65838227,0.646466189,0.718851392,0.146957085,-1.429761289,0.171736923
1458,-0.601742881,0.611229304,0.822306954,0.12482424,-1.462382476,0.24263552
1459,-0.545103493,0.611229304,0.863689178,0.113757817,-1.497333747,0.31117083
1460,-0.630062576,0.50551865,0.801615841,0.117446624,-1.534615103,0.382069427
1461,-0.601742881,0.399807995,0.905071403,0.121135432,-1.574226544,0.450604737
1462,-0.65838227,0.329334226,0.987835852,0.143268278,-1.623158325,0.512050188
1463,-0.630062576,0.258860456,1.049909189,0.198600392,-1.672090105,0.571132352
1464,-0.573423187,0.170768244,1.091291414,0.272376544,-1.72335197,0.62076137
1465,-0.630062576,0.135531359,1.174055863,0.368285542,-1.781604089,0.658573955
1466,-0.65838227,0.06505759,1.215438088,0.493705,-1.839856208,0.691659967
1467,-0.65838227,0.06505759,1.277511425,0.637568497,-1.905098582,0.722382692
1468,-0.573423187,0.06505759,1.401658099,0.781431993,-1.977331209,0.729472552
1469,-0.375185326,-0.00541618,1.463731435,0.917917875,-2.044903668,0.701113113
1470,-0.460144409,0.170768244,1.629260334,1.03227091,-2.093835448,0.578222212
1471,-0.431824715,0.223623571,1.525804772,1.124491101,-2.159077821,0.582948785
1472,-0.233586855,0.188386686,1.277511425,1.183512022,-2.159077821,0.637304376
1473,0.106249478,0.100294474,0.905071403,1.161379177,-2.091505363,0.651484095
1474,0.389446422,0.206005129,0.449866932,1.028582103,-1.963350701,0.618398083
1475,0.842561531,0.206005129,0.015353573,0.737166302,-1.807235021,0.535683054
1476,1.040799392,0.417426438,-0.026028652,0.335086273,-1.639468918,0.344256842
1477,1.210717558,0.329334226,-0.067410876,-0.092815409,-1.529954934,0.240272233
1478,1.437275113,0.153149802,0.036044685,-0.469073785,-1.394810017,0.202459648
1479,1.408955419,-0.00541618,0.387793595,-0.764178393,-1.250344762,0.122107905
1480,1.182397864,-0.163982162,0.801615841,-0.900664274,-1.136170608,0.041756162
1481,1.182397864,-0.234455931,0.987835852,-0.900664274,-1.047627387,-0.003146283
1482,1.267356947,-0.304929701,1.277511425,-0.823199315,-0.956754081,-0.038595581
1483,1.408955419,-0.287311258,1.339584762,-0.705157471,-0.826269334,-0.083498026
1484,1.465594807,-0.269692816,1.484422548,-0.587115628,-0.679473993,-0.140216903
1485,1.578873585,-0.216837489,1.629260334,-0.487517823,-0.523358314,-0.194572494
1486,1.465594807,-0.181600604,1.670642559,-0.417430478,-0.374232889,-0.253654658
1487,1.578873585,-0.146363719,1.587878109,-0.365787172,-0.246078226,-0.312736822
1488,1.493914502,-0.199219046,1.525804772,-0.336276711,-0.145884581,-0.402541712
1489,1.635512974,-0.428258798,1.256820312,-0.362098364,-0.036370597,-0.541975619
1490,1.35231603,-0.410640355,1.091291414,-0.483829015,0.014891268,-0.728675257
1491,1.380635724,-0.622061664,0.739542504,-0.67564701,0.021881522,-0.735765117
1492,1.550553891,-0.974430512,0.408484707,-0.882220236,0.073143387,-0.735765117
1493,1.437275113,-1.203470263,0.07742691,-1.070349424,0.171006947,-0.832659866
1494,1.125758475,-1.538220669,-0.067410876,-1.195768883,0.308481949,-0.983910206
1495,0.672643365,-1.661549766,0.180882472,-1.251100997,0.462267543,-1.139887119
1496,0.587684282,-1.872971075,0.387793595,-1.240034574,0.620713308,-1.229692009
1497,0.672643365,-1.855352632,0.532631381,-1.158880807,0.767508648,-1.314770325
1498,0.842561531,-1.784878863,0.594704718,-1.070349424,0.886342971,-1.437661226
1499,0.729282754,-1.608694439,0.387793595,-1.051905386,0.984206532,-1.570005274
1500,0.70096306,-1.485365342,0.180882472,-1.066660617,1.068089583,-1.692896175
1501,0.616003976,-1.362036245,-0.046719764,-1.1072375,1.15430272,-1.796880784
1502,0.587684282,-1.203470263,-0.088101989,-1.140436769,1.245176026,-1.941041264
1503,0.417766116,-1.062522724,-0.274321999,-1.147814384,1.310418399,-1.997760141
1504,0.332807033,-0.992048954,-0.150175326,-1.136747961,1.366340434,-1.95758427
1505,-0.148627771,-0.868719858,-0.19155755,-1.147814384,1.345369671,-1.943404551
1506,-0.318545938,-0.745390761,-0.088101989,-1.147814384,1.193914161,-1.915045112
1507,-0.403505021,-0.763009203,-0.088101989,-1.103548693,0.972556108,-1.886685673
1508,-0.431824715,-0.622061664,-0.19155755,-0.985506849,0.732557377,-1.867779381
1509,-0.290226243,-0.498732567,-0.481233123,-0.790000046,0.520519663,-1.735435333
1510,0.021290395,-0.357785028,-0.915746481,-0.576049205,0.394695085,-1.603091285
1511,0.049610089,-0.163982162,-1.412333177,-0.421119286,0.301491694,-1.522739542
1512,0.134569172,0.082676032,-1.722699862,-0.343654326,0.194307795,-1.484926957
1513,0.134569172,0.382189553,-1.846846536,-0.295699827,0.066153133,-1.42820808
1514,0.24784795,0.611229304,-1.846846536,-0.277255789,-0.066661699,-1.357309483
1515,0.332807033,0.787413728,-1.908919873,-0.29201102,-0.201806616,-1.314770325
1516,0.389446422,0.981216594,-1.784773199,-0.376853595,-0.343941787,-1.298227319
1517,0.077929783,1.104545691,-1.660626525,-0.498584245,-0.486076957,-1.267504594
1518,0.077929783,1.139782576,-1.515788739,-0.64613655,-0.621221874,-1.206059143
1519,0.077929783,1.034071922,-1.329568728,-0.782622431,-0.728405773,-1.135160546
1520,-0.035348994,0.822650613,-1.288186503,-0.889597852,-0.795978232,-1.05717209
1521,-0.176947466,0.628847746,-1.101966492,-0.959685196,-0.807628656,-0.972093773
1522,-0.20526716,0.346952668,-0.998510931,-0.981818042,-0.788987977,-0.889378744
1523,-0.403505021,0.047439147,-0.770908695,-0.944929966,-0.76568713,-0.804300427
1524,-0.375185326,-0.410640355,-0.584688684,-0.874842621,-0.76568713,-0.714495538
1525,-0.318545938,-0.798246088,-0.605379797,-0.786311239,-0.772677384,-0.636507081
1526,-0.460144409,-1.115378051,-0.481233123,-0.624003704,-0.763357045,-0.575061631
1527,-0.601742881,-1.414891572,-0.232939775,-0.369475979,-0.719085434,-0.511252894
